domain,variable,type,missing_n,missing_pct,nonmissing_n,distinct_n,expected_critical
ae,AEACN,object,1136,20.93,4292,7,False
ae,AEBODSYS,object,0,0.0,5428,23,True
ae,AECONTRT,object,1136,20.93,4292,3,False
ae,AEDECOD,object,0,0.0,5428,436,True
ae,AEENWK,float64,4056,74.72,1372,64,False
ae,AEENWKF,object,5284,97.35,144,2,False
ae,AEOUT,object,1136,20.93,4292,8,False
ae,AEPATT,object,1134,20.89,4294,4,False
ae,AEREFID,object,1134,20.89,4294,238,False
ae,AEREL,object,1136,20.93,4292,3,True
ae,AESCONG,object,5428,100.0,0,1,False
ae,AESDISAB,object,5423,99.91,5,2,False
ae,AESDTH,object,5403,99.54,25,2,False
ae,AESEQ,float64,0,0.0,5428,130,True
ae,AESER,object,1137,20.95,4291,3,True
ae,AESHOSP,object,5309,97.81,119,2,False
ae,AESLIFE,object,5424,99.93,4,2,False
ae,AESMIE,object,5413,99.72,15,2,False
ae,AESPID,object,0,0.0,5428,204,False
ae,AESTWK,float64,26,0.48,5402,253,False
ae,AESTWKF,object,4225,77.84,1203,3,False
ae,AETERM,object,0,0.0,5428,1408,True
ae,AETOXGR,object,11,0.2,5417,6,False
ae,DOMAIN,object,0,0.0,5428,1,True
ae,STUDYID,object,0,0.0,5428,1,True
ae,SUBJID,object,0,0.0,5428,357,False
ae,USUBJID,object,0,0.0,5428,357,True
ae,VISIT,object,0,0.0,5428,19,False
ae,VISITNUM,float64,0,0.0,5428,19,False
cd,CDCAT,object,0,0.0,3339,1,False
cd,CDDTC,object,3339,100.0,0,1,False
cd,CDORRES,object,84,2.52,3255,715,False
cd,CDSEQ,float64,0,0.0,3339,9,False
cd,CDSTAT,object,3255,97.48,84,2,False
cd,CDSTRESC,object,84,2.52,3255,715,False
cd,CDTEST,object,0,0.0,3339,9,False
cd,CDTESTCD,object,0,0.0,3339,9,False
cd,DOMAIN,object,0,0.0,3339,1,False
cd,STUDYID,object,0,0.0,3339,1,False
cd,SUBJID,object,0,0.0,3339,371,False
cd,USUBJID,object,0,0.0,3339,371,False
cd,VISIT,object,0,0.0,3339,1,False
cd,VISITNUM,float64,0,0.0,3339,1,False
cm,CMCAT,object,0,0.0,24534,8,False
cm,CMDECOD,object,409,1.67,24125,935,True
cm,CMDOSE,float64,19871,80.99,4663,756,False
cm,CMDOSRGM,object,22454,91.52,2080,11,False
cm,CMDOSU,object,0,0.0,24534,17,False
cm,CMENDTC,object,16344,66.62,8190,1517,True
cm,CMENDY,float64,16937,69.03,7597,1305,False
cm,CMINDC,object,22546,91.9,1988,6,False
cm,CMSEQ,float64,0,0.0,24534,243,True
cm,CMSTDTC,object,12944,52.76,11590,1773,True
cm,CMSTDY,float64,14833,60.46,9701,1594,False
cm,CMTRT,object,0,0.0,24534,3255,True
cm,DOMAIN,object,0,0.0,24534,1,True
cm,STUDYID,object,0,0.0,24534,1,True
cm,SUBJID,object,0,0.0,24534,371,False
cm,USUBJID,object,0,0.0,24534,371,True
cm,VISIT,object,0,0.0,24534,22,False
cm,VISITNUM,float64,0,0.0,24534,22,False
cx,CXBLFL,object,2516,100.0,0,1,False
cx,CXCAT,object,0,0.0,2516,2,False
cx,CXDTC,object,0,0.0,2516,464,False
cx,CXMETHOD,object,0,0.0,2516,2,False
cx,CXORNRLO,object,1281,50.91,1235,30,False
cx,CXORRES,object,58,2.31,2458,150,False
cx,CXORRESU,object,1262,50.16,1254,2,False
cx,CXSEQ,float64,0,0.0,2516,20,False
cx,CXSTAT,object,2458,97.69,58,2,False
cx,CXSTNRLO,float64,1282,50.95,1234,20,False
cx,CXSTRESC,object,58,2.31,2458,150,False
cx,CXSTRESN,float64,1263,50.2,1253,130,False
cx,CXSTRESU,object,1262,50.16,1254,2,False
cx,CXTEST,object,0,0.0,2516,2,False
cx,CXTESTCD,object,0,0.0,2516,2,False
cx,DOMAIN,object,0,0.0,2516,1,False
cx,STUDYID,object,0,0.0,2516,1,False
cx,SUBJID,object,0,0.0,2516,371,False
cx,USUBJID,object,0,0.0,2516,371,False
cx,VISIT,object,0,0.0,2516,13,False
cx,VISITNUM,float64,0,0.0,2516,13,False
dm,AGEGRP,object,0,0.0,371,37,False
dm,AGEU,object,0,0.0,371,1,True
dm,ARM,object,0,0.0,371,1,True
dm,ARMCD,object,0,0.0,371,1,True
dm,DOMAIN,object,0,0.0,371,1,True
dm,RACE,object,0,0.0,371,4,True
dm,RFENDTC,object,0,0.0,371,367,True
dm,RFSTDTC,object,0,0.0,371,370,True
dm,SEX,object,0,0.0,371,1,True
dm,STUDYID,object,0,0.0,371,1,True
dm,SUBJID,object,0,0.0,371,371,True
dm,USUBJID,object,0,0.0,371,371,True
ds,DOMAIN,object,0,0.0,2842,1,True
ds,DSCAT,object,0,0.0,2842,3,True
ds,DSDECOD,object,0,0.0,2842,17,True
ds,DSSCAT,object,0,0.0,2842,6,False
ds,DSSEQ,float64,0,0.0,2842,13,True
ds,DSSTWK,float64,1,0.04,2841,130,True
ds,DSSTWKF,object,2842,100.0,0,1,False
ds,DSTERM,object,0,0.0,2842,56,True
ds,EPOCH,object,2100,73.89,742,3,False
ds,STUDYID,object,0,0.0,2842,1,True
ds,SUBJID,object,0,0.0,2842,371,False
ds,USUBJID,object,0,0.0,2842,371,True
ds,VISIT,object,0,0.0,2842,12,False
ds,VISITNUM,float64,0,0.0,2842,12,False
eg,DOMAIN,object,0,0.0,558,1,False
eg,EGBLFL,object,558,100.0,0,1,False
eg,EGDTC,object,0,0.0,558,330,False
eg,EGDY,float64,0,0.0,558,160,False
eg,EGEVAL,object,558,100.0,0,1,False
eg,EGORRES,object,0,0.0,558,2,False
eg,EGSEQ,float64,0,0.0,558,8,False
eg,EGSTRESC,object,0,0.0,558,2,False
eg,EGTEST,object,0,0.0,558,1,False
eg,EGTESTCD,object,0,0.0,558,1,False
eg,STUDYID,object,0,0.0,558,1,False
eg,SUBJID,object,0,0.0,558,352,False
eg,USUBJID,object,0,0.0,558,352,False
eg,VISIT,object,0,0.0,558,3,False
eg,VISITNUM,float64,0,0.0,558,3,False
ex,DOMAIN,object,0,0.0,3485,1,True
ex,EXDOSE,float64,2,0.06,3483,144,True
ex,EXDOSFRM,object,0,0.0,3485,2,False
ex,EXDOSU,object,2,0.06,3483,2,True
ex,EXENDTC,object,12,0.34,3473,1962,True
ex,EXLOT,object,474,13.6,3011,577,False
ex,EXROUTE,object,0,0.0,3485,2,False
ex,EXSEQ,float64,0,0.0,3485,20,True
ex,EXSTDTC,object,0,0.0,3485,1971,True
ex,EXSTDY,float64,0,0.0,3485,168,False
ex,EXTRT,object,0,0.0,3485,4,True
ex,STUDYID,object,0,0.0,3485,1,True
ex,SUBJID,object,0,0.0,3485,371,False
ex,USUBJID,object,0,0.0,3485,371,True
ex,VISIT,object,0,0.0,3485,10,False
ex,VISITNUM,float64,0,0.0,3485,10,False
ie,DOMAIN,object,0,0.0,42,1,False
ie,IECAT,object,0,0.0,42,2,False
ie,IEORRES,object,0,0.0,42,2,False
ie,IESEQ,float64,0,0.0,42,2,False
ie,IESPID,object,0,0.0,42,3,False
ie,IESTRESC,object,0,0.0,42,2,False
ie,IETEST,object,0,0.0,42,15,False
ie,IETESTCD,object,0,0.0,42,16,False
ie,STUDYID,object,0,0.0,42,1,False
ie,SUBJID,object,0,0.0,42,38,False
ie,USUBJID,object,0,0.0,42,38,False
ie,VISIT,object,0,0.0,42,1,False
ie,VISITNUM,float64,0,0.0,42,1,False
lb,DOMAIN,object,0,0.0,80788,1,True
lb,LBBLFL,object,72776,90.08,8012,2,False
lb,LBCAT,object,0,0.0,80788,4,False
lb,LBDTC,object,55,0.07,80733,806,True
lb,LBDY,float64,72,0.09,80716,633,False
lb,LBNRIND,object,3303,4.09,77485,4,False
lb,LBORNRHI,object,3324,4.11,77464,55,False
lb,LBORNRLO,object,3324,4.11,77464,47,False
lb,LBORRES,object,3299,4.08,77489,7299,False
lb,LBORRESU,object,3299,4.08,77489,65,False
lb,LBSCAT,object,0,0.0,80788,7,False
lb,LBSEQ,float64,0,0.0,80788,511,True
lb,LBSTAT,object,77489,95.92,3299,2,False
lb,LBSTNRHI,float64,3299,4.08,77489,39,False
lb,LBSTNRLO,float64,3299,4.08,77489,35,False
lb,LBSTRESC,object,3299,4.08,77489,9499,False
lb,LBSTRESN,float64,3303,4.09,77485,9494,True
lb,LBSTRESU,object,3303,4.09,77485,9,True
lb,LBTEST,object,0,0.0,80788,24,True
lb,LBTESTCD,object,0,0.0,80788,24,True
lb,LBTOX,object,65397,80.95,15391,18,False
lb,LBTOXGR,object,32693,40.47,48095,6,False
lb,STUDYID,object,0,0.0,80788,1,True
lb,SUBJID,object,0,0.0,80788,371,False
lb,USUBJID,object,0,0.0,80788,371,True
lb,VISIT,object,0,0.0,80788,20,False
lb,VISITNUM,float64,0,0.0,80788,20,False
ls,DOMAIN,object,0,0.0,5774,1,True
ls,LSBLFL,object,5774,100.0,0,1,False
ls,LSCAT,object,0,0.0,5774,2,False
ls,LSDTC,object,708,12.26,5066,557,False
ls,LSLOC,object,0,0.0,5774,25,False
ls,LSMETHOD,object,723,12.52,5051,9,False
ls,LSORRES,object,1653,28.63,4121,184,False
ls,LSORRESU,object,3527,61.08,2247,2,False
ls,LSSEQ,float64,0,0.0,5774,98,False
ls,LSSPID,object,0,0.0,5774,197,False
ls,LSSTAT,object,4121,71.37,1653,2,False
ls,LSSTRESC,object,1648,28.54,4126,185,False
ls,LSSTRESN,float64,3531,61.15,2243,110,False
ls,LSSTRESU,object,3527,61.08,2247,2,False
ls,LSTEST,object,0,0.0,5774,3,False
ls,LSTESTCD,object,0,0.0,5774,3,False
ls,STUDYID,object,0,0.0,5774,1,True
ls,SUBJID,object,0,0.0,5774,371,False
ls,USUBJID,object,0,0.0,5774,371,True
ls,VISIT,object,0,0.0,5774,21,False
ls,VISITNUM,float64,0,0.0,5774,21,False
mh,DOMAIN,object,0,0.0,2292,1,False
mh,MHBODSYS,object,266,11.61,2026,26,False
mh,MHCAT,object,0,0.0,2292,2,False
mh,MHDECOD,object,266,11.61,2026,622,False
mh,MHSEQ,float64,0,0.0,2292,41,False
mh,MHSPID,object,0,0.0,2292,18,False
mh,MHSTDTC,object,163,7.11,2129,428,False
mh,MHTERM,object,0,0.0,2292,1365,False
mh,STUDYID,object,0,0.0,2292,1,False
mh,SUBJID,object,0,0.0,2292,346,False
mh,USUBJID,object,0,0.0,2292,346,False
mh,VISIT,object,0,0.0,2292,1,False
mh,VISITNUM,float64,0,0.0,2292,1,False
pe,DOMAIN,object,0,0.0,3614,1,False
pe,PEBLFL,object,3614,100.0,0,1,False
pe,PEDTC,object,0,0.0,3614,577,False
pe,PEDY,float64,0,0.0,3614,270,False
pe,PEMETHOD,object,2409,66.66,1205,9,False
pe,PEORRES,object,371,10.27,3243,5,False
pe,PESEQ,float64,0,0.0,3614,18,False
pe,PESTRESC,object,371,10.27,3243,6,False
pe,PESTRESN,float64,3614,100.0,0,0,False
pe,PESTRESU,object,3614,100.0,0,1,False
pe,PETEST,object,0,0.0,3614,9,False
pe,PETESTCD,object,0,0.0,3614,9,False
pe,STUDYID,object,0,0.0,3614,1,False
pe,SUBJID,object,0,0.0,3614,371,False
pe,USUBJID,object,0,0.0,3614,371,False
pe,VISIT,object,34,0.94,3580,13,False
pe,VISITNUM,float64,34,0.94,3580,12,False
pn,DOMAIN,object,0,0.0,26982,1,True
pn,PNCAT,object,0,0.0,26982,1,False
pn,PNDTC,object,118,0.44,26864,945,False
pn,PNORRES,object,1175,4.35,25807,704,False
pn,PNORRESU,object,1175,4.35,25807,3,False
pn,PNSEQ,float64,0,0.0,26982,224,False
pn,PNSPID,object,0,0.0,26982,127,False
pn,PNSTAT,object,25807,95.65,1175,2,False
pn,PNSTRESC,object,76,0.28,26906,705,False
pn,PNSTRESN,float64,1175,4.35,25807,491,False
pn,PNSTRESU,object,1175,4.35,25807,3,False
pn,PNTEST,object,0,0.0,26982,2,False
pn,PNTESTCD,object,0,0.0,26982,2,False
pn,STUDYID,object,0,0.0,26982,1,True
pn,SUBJID,object,0,0.0,26982,358,False
pn,USUBJID,object,0,0.0,26982,358,True
pn,VISIT,object,0,0.0,26982,18,False
pn,VISITNUM,float64,0,0.0,26982,18,False
pr,DOMAIN,object,0,0.0,151,1,False
pr,PRCAT,object,0,0.0,151,1,False
pr,PRDTC,object,0,0.0,151,112,False
pr,PRSEQ,float64,0,0.0,151,8,False
pr,PRTRT,object,0,0.0,151,106,False
pr,STUDYID,object,0,0.0,151,1,False
pr,SUBJID,object,0,0.0,151,65,False
pr,USUBJID,object,0,0.0,151,65,False
pr,VISIT,object,0,0.0,151,1,False
pr,VISITNUM,float64,0,0.0,151,1,False
sc,DOMAIN,object,0,0.0,11,1,False
sc,SCDTC,object,0,0.0,11,11,False
sc,SCDY,float64,0,0.0,11,9,False
sc,SCORRES,object,0,0.0,11,3,False
sc,SCSEQ,float64,0,0.0,11,1,False
sc,SCSTRESC,object,0,0.0,11,3,False
sc,SCTEST,object,0,0.0,11,1,False
sc,SCTESTCD,object,0,0.0,11,1,False
sc,STUDYID,object,0,0.0,11,1,False
sc,SUBJID,object,0,0.0,11,11,False
sc,USUBJID,object,0,0.0,11,11,False
suppae,IDVAR,object,0,0.0,53153,1,False
suppae,IDVARVAL,object,0,0.0,53153,130,False
suppae,QEVAL,object,53153,100.0,0,1,False
suppae,QLABEL,object,0,0.0,53153,12,False
suppae,QNAM,object,0,0.0,53153,12,False
suppae,QORIG,object,0,0.0,53153,2,False
suppae,QVAL,object,0,0.0,53153,1360,False
suppae,RDOMAIN,object,0,0.0,53153,1,False
suppae,STUDYID,object,0,0.0,53153,1,False
suppae,SUBJID,object,0,0.0,53153,357,False
suppae,USUBJID,object,0,0.0,53153,357,False
suppcm,IDVAR,object,0,0.0,108333,1,False
suppcm,IDVARVAL,object,0,0.0,108333,243,False
suppcm,QEVAL,object,108333,100.0,0,1,False
suppcm,QLABEL,object,0,0.0,108333,10,False
suppcm,QNAM,object,0,0.0,108333,10,False
suppcm,QORIG,object,0,0.0,108333,2,False
suppcm,QVAL,object,0,0.0,108333,1154,False
suppcm,RDOMAIN,object,0,0.0,108333,1,False
suppcm,STUDYID,object,0,0.0,108333,1,False
suppcm,SUBJID,object,0,0.0,108333,371,False
suppcm,USUBJID,object,0,0.0,108333,371,False
suppdm,IDVAR,object,2597,100.0,0,1,False
suppdm,IDVARVAL,object,2597,100.0,0,1,False
suppdm,QEVAL,object,2597,100.0,0,1,False
suppdm,QLABEL,object,0,0.0,2597,7,False
suppdm,QNAM,object,0,0.0,2597,7,False
suppdm,QORIG,object,0,0.0,2597,1,False
suppdm,QVAL,object,0,0.0,2597,95,False
suppdm,RDOMAIN,object,0,0.0,2597,1,False
suppdm,STUDYID,object,0,0.0,2597,1,False
suppdm,SUBJID,object,0,0.0,2597,371,False
suppdm,USUBJID,object,0,0.0,2597,371,False
suppds,IDVAR,object,0,0.0,1083,1,False
suppds,IDVARVAL,object,0,0.0,1083,10,False
suppds,QEVAL,object,1083,100.0,0,1,False
suppds,QLABEL,object,0,0.0,1083,1,False
suppds,QNAM,object,0,0.0,1083,1,False
suppds,QORIG,object,0,0.0,1083,1,False
suppds,QVAL,object,0,0.0,1083,4,False
suppds,RDOMAIN,object,0,0.0,1083,1,False
suppds,STUDYID,object,0,0.0,1083,1,False
suppds,SUBJID,object,0,0.0,1083,338,False
suppds,USUBJID,object,0,0.0,1083,338,False
suppeg,IDVAR,object,0,0.0,164,1,False
suppeg,IDVARVAL,object,0,0.0,164,8,False
suppeg,QEVAL,object,164,100.0,0,1,False
suppeg,QLABEL,object,0,0.0,164,1,False
suppeg,QNAM,object,0,0.0,164,1,False
suppeg,QORIG,object,0,0.0,164,1,False
suppeg,QVAL,object,0,0.0,164,153,False
suppeg,RDOMAIN,object,0,0.0,164,1,False
suppeg,STUDYID,object,0,0.0,164,1,False
suppeg,SUBJID,object,0,0.0,164,118,False
suppeg,USUBJID,object,0,0.0,164,118,False
suppex,IDVAR,object,0,0.0,18137,1,False
suppex,IDVARVAL,object,0,0.0,18137,20,False
suppex,QEVAL,object,18137,100.0,0,1,False
suppex,QLABEL,object,0,0.0,18137,12,False
suppex,QNAM,object,0,0.0,18137,12,False
suppex,QORIG,object,0,0.0,18137,2,False
suppex,QVAL,object,0,0.0,18137,1358,False
suppex,RDOMAIN,object,0,0.0,18137,1,False
suppex,STUDYID,object,0,0.0,18137,1,False
suppex,SUBJID,object,0,0.0,18137,371,False
suppex,USUBJID,object,0,0.0,18137,371,False
suppie,IDVAR,object,0,0.0,21,1,False
suppie,IDVARVAL,object,0,0.0,21,2,False
suppie,QEVAL,object,21,100.0,0,1,False
suppie,QLABEL,object,0,0.0,21,1,False
suppie,QNAM,object,0,0.0,21,1,False
suppie,QORIG,object,0,0.0,21,1,False
suppie,QVAL,object,0,0.0,21,4,False
suppie,RDOMAIN,object,0,0.0,21,1,False
suppie,STUDYID,object,0,0.0,21,1,False
suppie,SUBJID,object,0,0.0,21,21,False
suppie,USUBJID,object,0,0.0,21,21,False
supplb,IDVAR,object,0,0.0,80788,1,False
supplb,IDVARVAL,object,0,0.0,80788,511,False
supplb,QEVAL,object,80788,100.0,0,1,False
supplb,QLABEL,object,0,0.0,80788,1,False
supplb,QNAM,object,0,0.0,80788,1,False
supplb,QORIG,object,0,0.0,80788,1,False
supplb,QVAL,object,0,0.0,80788,21,False
supplb,RDOMAIN,object,0,0.0,80788,1,False
supplb,STUDYID,object,0,0.0,80788,1,False
supplb,SUBJID,object,0,0.0,80788,371,False
supplb,USUBJID,object,0,0.0,80788,371,False
suppls,IDVAR,object,0,0.0,5610,1,False
suppls,IDVARVAL,object,0,0.0,5610,98,False
suppls,QEVAL,object,5610,100.0,0,1,False
suppls,QLABEL,object,0,0.0,5610,1,False
suppls,QNAM,object,0,0.0,5610,1,False
suppls,QORIG,object,0,0.0,5610,1,False
suppls,QVAL,object,0,0.0,5610,1078,False
suppls,RDOMAIN,object,0,0.0,5610,1,False
suppls,STUDYID,object,0,0.0,5610,1,False
suppls,SUBJID,object,0,0.0,5610,367,False
suppls,USUBJID,object,0,0.0,5610,367,False
suppmh,IDVAR,object,0,0.0,2025,1,False
suppmh,IDVARVAL,object,0,0.0,2025,41,False
suppmh,QEVAL,object,2025,100.0,0,1,False
suppmh,QLABEL,object,0,0.0,2025,1,False
suppmh,QNAM,object,0,0.0,2025,1,False
suppmh,QORIG,object,0,0.0,2025,1,False
suppmh,QVAL,object,0,0.0,2025,4,False
suppmh,RDOMAIN,object,0,0.0,2025,1,False
suppmh,STUDYID,object,0,0.0,2025,1,False
suppmh,SUBJID,object,0,0.0,2025,326,False
suppmh,USUBJID,object,0,0.0,2025,326,False
supppe,IDVAR,object,0,0.0,1134,1,False
supppe,IDVARVAL,object,0,0.0,1134,16,False
supppe,QEVAL,object,1134,100.0,0,1,False
supppe,QLABEL,object,0,0.0,1134,4,False
supppe,QNAM,object,0,0.0,1134,4,False
supppe,QORIG,object,0,0.0,1134,1,False
supppe,QVAL,object,0,0.0,1134,67,False
supppe,RDOMAIN,object,0,0.0,1134,1,False
supppe,STUDYID,object,0,0.0,1134,1,False
supppe,SUBJID,object,0,0.0,1134,368,False
supppe,USUBJID,object,0,0.0,1134,368,False
supppr,IDVAR,object,0,0.0,151,1,False
supppr,IDVARVAL,object,0,0.0,151,8,False
supppr,QEVAL,object,151,100.0,0,1,False
supppr,QLABEL,object,0,0.0,151,1,False
supppr,QNAM,object,0,0.0,151,1,False
supppr,QORIG,object,0,0.0,151,1,False
supppr,QVAL,object,0,0.0,151,104,False
supppr,RDOMAIN,object,0,0.0,151,1,False
supppr,STUDYID,object,0,0.0,151,1,False
supppr,SUBJID,object,0,0.0,151,65,False
supppr,USUBJID,object,0,0.0,151,65,False
sv,DOMAIN,object,0,0.0,3930,1,False
sv,STUDYID,object,0,0.0,3930,1,False
sv,SUBJID,object,0,0.0,3930,371,False
sv,SVENDTC,object,3930,100.0,0,1,False
sv,SVSTDTC,object,374,9.52,3556,723,False
sv,SVSTDY,float64,374,9.52,3556,589,False
sv,USUBJID,object,0,0.0,3930,371,False
sv,VISIT,object,0,0.0,3930,22,False
sv,VISITNUM,float64,0,0.0,3930,22,False
te,DOMAIN,object,0,0.0,4,1,False
te,ELEMENT,object,0,0.0,4,4,False
te,ETCD,object,0,0.0,4,4,False
te,STUDYID,object,0,0.0,4,1,False
te,TEENRL,object,0,0.0,4,4,False
te,TESTRL,object,0,0.0,4,4,False
ti,DOMAIN,object,0,0.0,48,1,False
ti,IECAT,object,0,0.0,48,2,False
ti,IETEST,object,0,0.0,48,33,False
ti,IETESTCD,object,0,0.0,48,48,False
ti,STUDYID,object,0,0.0,48,1,False
ts,DOMAIN,object,0,0.0,16,1,False
ts,STUDYID,object,0,0.0,16,1,False
ts,TSPARM,object,0,0.0,16,16,False
ts,TSPARMCD,object,0,0.0,16,16,False
ts,TSSEQ,float64,0,0.0,16,1,False
ts,TSVAL,object,0,0.0,16,16,False
tv,ARMCD,object,24,100.0,0,1,False
tv,DOMAIN,object,0,0.0,24,1,False
tv,STUDYID,object,0,0.0,24,1,False
tv,TVENRL,object,0,0.0,24,14,False
tv,TVSTRL,object,0,0.0,24,14,False
tv,VISIT,object,0,0.0,24,24,False
tv,VISITNUM,float64,0,0.0,24,24,False
vs,DOMAIN,object,0,0.0,18388,1,True
vs,STUDYID,object,0,0.0,18388,1,True
vs,SUBJID,object,0,0.0,18388,371,False
vs,USUBJID,object,0,0.0,18388,371,True
vs,VISIT,object,0,0.0,18388,12,False
vs,VISITNUM,float64,0,0.0,18388,12,False
vs,VSBLFL,object,15116,82.21,3272,2,False
vs,VSDRVFL,object,13714,74.58,4674,2,False
vs,VSDTC,object,0,0.0,18388,538,True
vs,VSDY,float64,0,0.0,18388,238,False
vs,VSMETHOD,object,16381,89.09,2007,5,False
vs,VSORRES,object,0,0.0,18388,991,False
vs,VSORRESU,object,0,0.0,18388,8,False
vs,VSSEQ,float64,0,0.0,18388,97,True
vs,VSSTRESC,object,0,0.0,18388,1161,False
vs,VSSTRESN,float64,0,0.0,18388,990,True
vs,VSSTRESU,object,0,0.0,18388,8,True
vs,VSTEST,object,0,0.0,18388,9,True
vs,VSTESTCD,object,0,0.0,18388,9,True
