dataset,variable,origin,predecessor,method_oid,method_description,sas_producer,r_validation_producer,actual_xpt_variable_present,define_item_present,forward_tfl_consumers,traceability_status
ADSL,STUDYID,Protocol,Protocol identifier from study_config.yaml and SDTM study domain records.,,,02_production_sas/A_adsl_generation.sas,03_validation_r/v_adsl_validation.R,YES,YES,F-01-1; F-12-1; F-14-1; multiple population denominators,DOCUMENTED
ADSL,USUBJID,Collected,SDTM.DM.USUBJID.,,,02_production_sas/A_adsl_generation.sas,03_validation_r/v_adsl_validation.R,YES,YES,F-01-1; F-12-1; F-14-1; multiple population denominators,DOCUMENTED
ADSL,SUBJID,Collected,SDTM.DM.SUBJID.,,,02_production_sas/A_adsl_generation.sas,03_validation_r/v_adsl_validation.R,YES,YES,F-01-1; F-12-1; F-14-1; multiple population denominators,DOCUMENTED
ADSL,SITEID,Collected,SDTM.DM.SITEID.,,,02_production_sas/A_adsl_generation.sas,03_validation_r/v_adsl_validation.R,YES,YES,F-01-1; F-12-1; F-14-1; multiple population denominators,DOCUMENTED
ADSL,AGE,Collected,SDTM.DM.AGE.,,,02_production_sas/A_adsl_generation.sas,03_validation_r/v_adsl_validation.R,YES,YES,F-01-1; F-12-1; F-14-1; multiple population denominators,DOCUMENTED
ADSL,AGEGR1,Collected,Derived age group from SDTM.DM.AGE and protocol age group definitions.,,,02_production_sas/A_adsl_generation.sas,03_validation_r/v_adsl_validation.R,YES,YES,F-01-1; F-12-1; F-14-1; multiple population denominators,DOCUMENTED
ADSL,AGEGR1N,Collected,Numeric age group from AGEGR1.,,,02_production_sas/A_adsl_generation.sas,03_validation_r/v_adsl_validation.R,YES,YES,F-01-1; F-12-1; F-14-1; multiple population denominators,DOCUMENTED
ADSL,RACE,Collected,SDTM.DM.RACE.,,,02_production_sas/A_adsl_generation.sas,03_validation_r/v_adsl_validation.R,YES,YES,F-01-1; F-12-1; F-14-1; multiple population denominators,DOCUMENTED
ADSL,ETHNIC,Collected,SDTM.DM.ETHNIC.,,,02_production_sas/A_adsl_generation.sas,03_validation_r/v_adsl_validation.R,YES,YES,F-01-1; F-12-1; F-14-1; multiple population denominators,DOCUMENTED
ADSL,SEX,Collected,SDTM.DM.SEX.,,,02_production_sas/A_adsl_generation.sas,03_validation_r/v_adsl_validation.R,YES,YES,F-01-1; F-12-1; F-14-1; multiple population denominators,DOCUMENTED
ADSL,TRT01P,Assigned,Randomized/planned treatment assignment from SDTM.DM.ARM and study_config.yaml treatment map.,,,02_production_sas/A_adsl_generation.sas,03_validation_r/v_adsl_validation.R,YES,YES,F-01-1; F-12-1; F-14-1; multiple population denominators,DOCUMENTED
ADSL,TRT01PN,Assigned,Numeric planned treatment assignment from study_config.yaml treatment map.,,,02_production_sas/A_adsl_generation.sas,03_validation_r/v_adsl_validation.R,YES,YES,F-01-1; F-12-1; F-14-1; multiple population denominators,DOCUMENTED
ADSL,TRT01A,Assigned,Actual treatment assignment from first non-missing SDTM.EX exposure record and study_config.yaml treatment map.,,,02_production_sas/A_adsl_generation.sas,03_validation_r/v_adsl_validation.R,YES,YES,F-01-1; F-12-1; F-14-1; multiple population denominators,DOCUMENTED
ADSL,TRT01AN,Assigned,Numeric actual treatment assignment from first non-missing SDTM.EX exposure record and study_config.yaml treatment map.,,,02_production_sas/A_adsl_generation.sas,03_validation_r/v_adsl_validation.R,YES,YES,F-01-1; F-12-1; F-14-1; multiple population denominators,DOCUMENTED
ADSL,RANDDT,Collected,Randomization date from SDTM.DM.RFSTDTC or randomization source record.,,,02_production_sas/A_adsl_generation.sas,03_validation_r/v_adsl_validation.R,YES,YES,F-01-1; F-12-1; F-14-1; multiple population denominators,DOCUMENTED
ADSL,TRTSDT,Derived,First exposure start date from SDTM.EX.EXSTDTC.,MT.TRTSDT,"Date of first exposure to treatment, derived as the minimum of EXSTDTC from the EX SDTM dataset.",02_production_sas/A_adsl_generation.sas,03_validation_r/v_adsl_validation.R,YES,YES,F-01-1; F-12-1; F-14-1; multiple population denominators,DOCUMENTED
ADSL,TRTEDT,Derived,Last exposure end date from SDTM.EX.EXENDTC.,MT.TRTEDT,"Date of last exposure to treatment, derived as the maximum of EXENDTC from the EX SDTM dataset.",02_production_sas/A_adsl_generation.sas,03_validation_r/v_adsl_validation.R,YES,YES,F-01-1; F-12-1; F-14-1; multiple population denominators,DOCUMENTED
ADSL,TRTDURD,Derived,Derived from ADSL.TRTSDT and ADSL.TRTEDT.,MT.TRTDURD,"Treatment duration in days, calculated as: TRTEDT - TRTSDT + 1.",02_production_sas/A_adsl_generation.sas,03_validation_r/v_adsl_validation.R,YES,YES,F-01-1; F-12-1; F-14-1; multiple population denominators,DOCUMENTED
ADSL,ITTFL,Derived,Population flag from randomized subject records and protocol population rules.,MT.ITTFL,"Intent-to-treat population flag, set to Y for all randomized subjects.",02_production_sas/A_adsl_generation.sas,03_validation_r/v_adsl_validation.R,YES,YES,F-01-1; F-12-1; F-14-1; multiple population denominators,DOCUMENTED
ADSL,SAFFL,Derived,Population flag from treated subject records using SDTM.EX exposure evidence.,MT.SAFFL,"Safety population flag, set to Y for all subjects who received at least one dose of study treatment.",02_production_sas/A_adsl_generation.sas,03_validation_r/v_adsl_validation.R,YES,YES,F-01-1; F-12-1; F-14-1; multiple population denominators,DOCUMENTED
ADSL,PPROTFL,Collected,Protocol/per-protocol eligibility source records and protocol deviation review.,,,02_production_sas/A_adsl_generation.sas,03_validation_r/v_adsl_validation.R,YES,YES,F-01-1; F-12-1; F-14-1; multiple population denominators,DOCUMENTED
ADSL,DTHFL,Collected,Death flag from SDTM.DM.DTHFL and disposition/death records.,,,02_production_sas/A_adsl_generation.sas,03_validation_r/v_adsl_validation.R,YES,YES,F-01-1; F-12-1; F-14-1; multiple population denominators,DOCUMENTED
ADSL,DTHDT,Derived,Death date from SDTM.DM.DTHDTC or disposition/death records.,MT.DTHDT,Death date derived from SDTM.DM.DTHDTC or disposition/death records.,02_production_sas/A_adsl_generation.sas,03_validation_r/v_adsl_validation.R,YES,YES,F-01-1; F-12-1; F-14-1; multiple population denominators,DOCUMENTED
ADSL,DTHCAUS,Collected,Death cause from disposition/death source records.,,,02_production_sas/A_adsl_generation.sas,03_validation_r/v_adsl_validation.R,YES,YES,F-01-1; F-12-1; F-14-1; multiple population denominators,DOCUMENTED
ADSL,LSTALVDT,Derived,Last known alive date from maximum non-death contact/assessment date across SDTM source domains.,MT.LSTALVDT,Last known alive date derived as the maximum non-death contact or assessment date across source domains.,02_production_sas/A_adsl_generation.sas,03_validation_r/v_adsl_validation.R,YES,YES,F-01-1; F-12-1; F-14-1; multiple population denominators,DOCUMENTED
ADSL,ECOGBL,Derived,Baseline ECOG from SDTM.QS/VS assessment source before treatment start.,MT.ECOGBL,"Baseline ECOG performance status, derived as the first non-missing value from VS where VSTESTCD = 'ECOG' and VSBLFL = 'Y'.",02_production_sas/A_adsl_generation.sas,03_validation_r/v_adsl_validation.R,YES,YES,F-01-1; F-12-1; F-14-1; multiple population denominators,DOCUMENTED
ADSL,MEASDISF,Derived,Measurable disease flag from baseline tumor/response source assessments.,MT.MEASDISF,"Baseline measurable disease flag, set to Y if target lesions are present at baseline in the LS SDTM dataset.",02_production_sas/A_adsl_generation.sas,03_validation_r/v_adsl_validation.R,YES,YES,F-01-1; F-12-1; F-14-1; multiple population denominators,DOCUMENTED
ADSL,VISCFL,Collected,Visceral disease flag from baseline lesion source assessments.,,,02_production_sas/A_adsl_generation.sas,03_validation_r/v_adsl_validation.R,YES,YES,F-01-1; F-12-1; F-14-1; multiple population denominators,DOCUMENTED
ADSL,PAINBL,Derived,Baseline pain score from pain assessment source before treatment start.,MT.PAINBL,"Baseline pain assessment flag, set to Y if baseline pain intensity is >= 2 or baseline analgesic score is >= 10.",02_production_sas/A_adsl_generation.sas,03_validation_r/v_adsl_validation.R,YES,YES,F-01-1; F-12-1; F-14-1; multiple population denominators,DOCUMENTED
ADSL,PSABL,Collected,Baseline PSA from SDTM.LB prostate-specific antigen records.,,,02_production_sas/A_adsl_generation.sas,03_validation_r/v_adsl_validation.R,YES,YES,F-01-1; F-12-1; F-14-1; multiple population denominators,DOCUMENTED
ADSL,ALPBL,Collected,Baseline alkaline phosphatase from SDTM.LB records.,,,02_production_sas/A_adsl_generation.sas,03_validation_r/v_adsl_validation.R,YES,YES,F-01-1; F-12-1; F-14-1; multiple population denominators,DOCUMENTED
ADSL,ALBBL,Assigned,Baseline albumin from SDTM.LB records.,,,02_production_sas/A_adsl_generation.sas,03_validation_r/v_adsl_validation.R,YES,YES,F-01-1; F-12-1; F-14-1; multiple population denominators,DOCUMENTED
ADSL,LDHBL,Assigned,Baseline lactate dehydrogenase from SDTM.LB records.,,,02_production_sas/A_adsl_generation.sas,03_validation_r/v_adsl_validation.R,YES,YES,F-01-1; F-12-1; F-14-1; multiple population denominators,DOCUMENTED
ADSL,HGBBL,Collected,Baseline hemoglobin from SDTM.LB records.,,,02_production_sas/A_adsl_generation.sas,03_validation_r/v_adsl_validation.R,YES,YES,F-01-1; F-12-1; F-14-1; multiple population denominators,DOCUMENTED
ADSL,DOCPROG,Collected,Investigator-assessed progression source records.,,,02_production_sas/A_adsl_generation.sas,03_validation_r/v_adsl_validation.R,YES,YES,F-01-1; F-12-1; F-14-1; multiple population denominators,DOCUMENTED
ADSL,DOCRESP,Collected,Investigator-assessed response source records.,,,02_production_sas/A_adsl_generation.sas,03_validation_r/v_adsl_validation.R,YES,YES,F-01-1; F-12-1; F-14-1; multiple population denominators,DOCUMENTED
ADSL,ECOGBLIF,Derived,Imputation flag derived from ECOGBL source availability and baseline window rules.,MT.ECOGBLIF,Baseline ECOG imputation flag derived from ECOGBL source availability and baseline window rules.,02_production_sas/A_adsl_generation.sas,03_validation_r/v_adsl_validation.R,YES,YES,F-01-1; F-12-1; F-14-1; multiple population denominators,DOCUMENTED
ADSL,PSABLIF,Derived,Imputation flag derived from PSABL source availability and baseline window rules.,MT.PSABLIF,Baseline PSA imputation flag derived from PSABL source availability and baseline window rules.,02_production_sas/A_adsl_generation.sas,03_validation_r/v_adsl_validation.R,YES,YES,F-01-1; F-12-1; F-14-1; multiple population denominators,DOCUMENTED
ADSL,ALPBLIF,Derived,Imputation flag derived from ALPBL source availability and baseline window rules.,MT.ALPBLIF,Baseline alkaline phosphatase imputation flag derived from ALPBL source availability and baseline window rules.,02_production_sas/A_adsl_generation.sas,03_validation_r/v_adsl_validation.R,YES,YES,F-01-1; F-12-1; F-14-1; multiple population denominators,DOCUMENTED
ADSL,HGBBLIF,Derived,Imputation flag derived from HGBBL source availability and baseline window rules.,MT.HGBBLIF,Baseline hemoglobin imputation flag derived from HGBBL source availability and baseline window rules.,02_production_sas/A_adsl_generation.sas,03_validation_r/v_adsl_validation.R,YES,YES,F-01-1; F-12-1; F-14-1; multiple population denominators,DOCUMENTED
ADSL,ALBBLIF,Derived,Imputation flag derived from ALBBL source availability and baseline window rules.,MT.ALBBLIF,Baseline albumin imputation flag derived from ALBBL source availability and baseline window rules.,02_production_sas/A_adsl_generation.sas,03_validation_r/v_adsl_validation.R,YES,YES,F-01-1; F-12-1; F-14-1; multiple population denominators,DOCUMENTED
ADSL,LDHBLIF,Derived,Imputation flag derived from LDHBL source availability and baseline window rules.,MT.LDHBLIF,Baseline lactate dehydrogenase imputation flag derived from LDHBL source availability and baseline window rules.,02_production_sas/A_adsl_generation.sas,03_validation_r/v_adsl_validation.R,YES,YES,F-01-1; F-12-1; F-14-1; multiple population denominators,DOCUMENTED
ADEX,STUDYID,Protocol,Protocol identifier from study_config.yaml and SDTM study domain records.,,,02_production_sas/A_adex_generation.sas,03_validation_r/v_adex_validation.R,YES,YES,F-14-1; F-17-1,DOCUMENTED
ADEX,USUBJID,Collected,SDTM.DM.USUBJID.,,,02_production_sas/A_adex_generation.sas,03_validation_r/v_adex_validation.R,YES,YES,F-14-1; F-17-1,DOCUMENTED
ADEX,SUBJID,Collected,SDTM.DM.SUBJID.,,,02_production_sas/A_adex_generation.sas,03_validation_r/v_adex_validation.R,YES,YES,F-14-1; F-17-1,DOCUMENTED
ADEX,TRT01P,Assigned,Randomized/planned treatment assignment from SDTM.DM.ARM and study_config.yaml treatment map.,,,02_production_sas/A_adex_generation.sas,03_validation_r/v_adex_validation.R,YES,YES,F-14-1; F-17-1,DOCUMENTED
ADEX,TRT01PN,Assigned,Numeric planned treatment assignment from study_config.yaml treatment map.,,,02_production_sas/A_adex_generation.sas,03_validation_r/v_adex_validation.R,YES,YES,F-14-1; F-17-1,DOCUMENTED
ADEX,TRTSDT,Collected,Treatment start date inherited from ADSL.TRTSDT unless defined directly for ADSL.,,,02_production_sas/A_adex_generation.sas,03_validation_r/v_adex_validation.R,YES,YES,F-14-1; F-17-1,DOCUMENTED
ADEX,PARAMCD,Collected,Analysis parameter code from dataset-specific parameter derivation and source test/category.,,,02_production_sas/A_adex_generation.sas,03_validation_r/v_adex_validation.R,YES,YES,F-14-1; F-17-1,DOCUMENTED
ADEX,PARAM,Collected,Analysis parameter label from dataset-specific parameter derivation and source test/category.,,,02_production_sas/A_adex_generation.sas,03_validation_r/v_adex_validation.R,YES,YES,F-14-1; F-17-1,DOCUMENTED
ADEX,PARCAT1,Collected,Analysis parameter category from dataset-specific parameter map.,,,02_production_sas/A_adex_generation.sas,03_validation_r/v_adex_validation.R,YES,YES,F-14-1; F-17-1,DOCUMENTED
ADEX,AVAL,Derived,Numeric exposure analysis value from SDTM.EX dose/duration fields by PARAMCD.,MT.ADEX_AVAL,"Numeric exposure analysis value derived from SDTM.EX dose, duration, or cycle records according to ADEX.PARAMCD.",02_production_sas/A_adex_generation.sas,03_validation_r/v_adex_validation.R,YES,YES,F-14-1; F-17-1,DOCUMENTED
ADEX,AVALC,Derived,Character exposure analysis value from SDTM.EX dose/duration fields by PARAMCD.,MT.ADEX_AVALC,"Character exposure analysis value derived from SDTM.EX dose, duration, or cycle records according to ADEX.PARAMCD.",02_production_sas/A_adex_generation.sas,03_validation_r/v_adex_validation.R,YES,YES,F-14-1; F-17-1,DOCUMENTED
ADEX,AVISIT,Collected,Analysis visit derived from source visit/date and dataset-specific visit window rules.,,,02_production_sas/A_adex_generation.sas,03_validation_r/v_adex_validation.R,YES,YES,F-14-1; F-17-1,DOCUMENTED
ADCM,STUDYID,Protocol,Protocol identifier from study_config.yaml and SDTM study domain records.,,,02_production_sas/A_adcm_generation.sas,03_validation_r/v_adcm_validation.R,YES,YES,No direct TFL consumer documented,DOCUMENTED
ADCM,USUBJID,Collected,SDTM.DM.USUBJID.,,,02_production_sas/A_adcm_generation.sas,03_validation_r/v_adcm_validation.R,YES,YES,No direct TFL consumer documented,DOCUMENTED
ADCM,CMDECOD,Collected,SDTM.CM plus ADSL treatment and subject-level attributes.,,,02_production_sas/A_adcm_generation.sas,03_validation_r/v_adcm_validation.R,YES,YES,No direct TFL consumer documented,DOCUMENTED
ADCM,CMCAT,Collected,SDTM.CM plus ADSL treatment and subject-level attributes.,,,02_production_sas/A_adcm_generation.sas,03_validation_r/v_adcm_validation.R,YES,YES,No direct TFL consumer documented,DOCUMENTED
ADCM,CMINDC,Collected,SDTM.CM plus ADSL treatment and subject-level attributes.,,,02_production_sas/A_adcm_generation.sas,03_validation_r/v_adcm_validation.R,YES,YES,No direct TFL consumer documented,DOCUMENTED
ADCM,ASTDT,Derived,Analysis start date derived from source start date.,MT.ADCM_ASTDT,Analysis medication start date derived from SDTM.CM.CMSTDTC.,02_production_sas/A_adcm_generation.sas,03_validation_r/v_adcm_validation.R,YES,YES,No direct TFL consumer documented,DOCUMENTED
ADCM,AENDT,Derived,Analysis end date derived from source end date.,MT.ADCM_AENDT,Analysis medication end date derived from SDTM.CM.CMENDTC.,02_production_sas/A_adcm_generation.sas,03_validation_r/v_adcm_validation.R,YES,YES,No direct TFL consumer documented,DOCUMENTED
ADCM,CMTRT,Collected,SDTM.CM plus ADSL treatment and subject-level attributes.,,,02_production_sas/A_adcm_generation.sas,03_validation_r/v_adcm_validation.R,YES,YES,No direct TFL consumer documented,DOCUMENTED
ADCM,ASTDY,Derived,Analysis start relative day derived from ASTDT and ADSL.TRTSDT.,MT.ADCM_ASTDY,Analysis medication start relative day derived from ADCM.ASTDT and ADSL.TRTSDT.,02_production_sas/A_adcm_generation.sas,03_validation_r/v_adcm_validation.R,YES,YES,No direct TFL consumer documented,DOCUMENTED
ADCM,GCSFFL,Collected,SDTM.CM plus ADSL treatment and subject-level attributes.,,,02_production_sas/A_adcm_generation.sas,03_validation_r/v_adcm_validation.R,YES,YES,No direct TFL consumer documented,DOCUMENTED
ADCM,GCSFPRFL,Collected,SDTM.CM plus ADSL treatment and subject-level attributes.,,,02_production_sas/A_adcm_generation.sas,03_validation_r/v_adcm_validation.R,YES,YES,No direct TFL consumer documented,DOCUMENTED
ADCM,NACTFL,Collected,SDTM.CM plus ADSL treatment and subject-level attributes.,,,02_production_sas/A_adcm_generation.sas,03_validation_r/v_adcm_validation.R,YES,YES,No direct TFL consumer documented,DOCUMENTED
ADCM,NACTDT,Collected,SDTM.CM plus ADSL treatment and subject-level attributes.,,,02_production_sas/A_adcm_generation.sas,03_validation_r/v_adcm_validation.R,YES,YES,No direct TFL consumer documented,DOCUMENTED
ADCM,PREDNFL,Collected,SDTM.CM plus ADSL treatment and subject-level attributes.,,,02_production_sas/A_adcm_generation.sas,03_validation_r/v_adcm_validation.R,YES,YES,No direct TFL consumer documented,DOCUMENTED
ADCM,TRTEMFL,Assigned,SDTM.CM plus ADSL treatment and subject-level attributes.,,,02_production_sas/A_adcm_generation.sas,03_validation_r/v_adcm_validation.R,YES,YES,No direct TFL consumer documented,DOCUMENTED
ADAE,STUDYID,Protocol,Protocol identifier from study_config.yaml and SDTM study domain records.,,,02_production_sas/A_adae_io_respec.sas,03_validation_r/v_adae_io_validation.R,YES,YES,T-20,DOCUMENTED
ADAE,USUBJID,Collected,SDTM.DM.USUBJID.,,,02_production_sas/A_adae_io_respec.sas,03_validation_r/v_adae_io_validation.R,YES,YES,T-20,DOCUMENTED
ADAE,AEDECOD,Collected,SDTM.AE/SUPPAE plus ADSL treatment and subject-level attributes.,,,02_production_sas/A_adae_io_respec.sas,03_validation_r/v_adae_io_validation.R,YES,YES,T-20,DOCUMENTED
ADAE,AEBODSYS,Collected,SDTM.AE/SUPPAE plus ADSL treatment and subject-level attributes.,,,02_production_sas/A_adae_io_respec.sas,03_validation_r/v_adae_io_validation.R,YES,YES,T-20,DOCUMENTED
ADAE,AEHLT,Collected,SDTM.AE/SUPPAE plus ADSL treatment and subject-level attributes.,,,02_production_sas/A_adae_io_respec.sas,03_validation_r/v_adae_io_validation.R,YES,YES,T-20,DOCUMENTED
ADAE,AESEV,Collected,SDTM.AE/SUPPAE plus ADSL treatment and subject-level attributes.,,,02_production_sas/A_adae_io_respec.sas,03_validation_r/v_adae_io_validation.R,YES,YES,T-20,DOCUMENTED
ADAE,ATOXGR,Derived,Numeric toxicity grade derived from SDTM.AE toxicity grade/severity source fields.,MT.ADAE_ATOXGR,Numeric adverse-event toxicity grade derived from SDTM.AE toxicity grade or severity source fields.,02_production_sas/A_adae_io_respec.sas,03_validation_r/v_adae_io_validation.R,YES,YES,T-20,DOCUMENTED
ADAE,AESER,Collected,SDTM.AE/SUPPAE plus ADSL treatment and subject-level attributes.,,,02_production_sas/A_adae_io_respec.sas,03_validation_r/v_adae_io_validation.R,YES,YES,T-20,DOCUMENTED
ADAE,AEREL,Collected,SDTM.AE/SUPPAE plus ADSL treatment and subject-level attributes.,,,02_production_sas/A_adae_io_respec.sas,03_validation_r/v_adae_io_validation.R,YES,YES,T-20,DOCUMENTED
ADAE,ASTDT,Collected,Analysis start date derived from source start date.,,,02_production_sas/A_adae_io_respec.sas,03_validation_r/v_adae_io_validation.R,YES,YES,T-20,DOCUMENTED
ADAE,AENDT,Collected,Analysis end date derived from source end date.,,,02_production_sas/A_adae_io_respec.sas,03_validation_r/v_adae_io_validation.R,YES,YES,T-20,DOCUMENTED
ADAE,ASTDY,Collected,Analysis start relative day derived from ASTDT and ADSL.TRTSDT.,,,02_production_sas/A_adae_io_respec.sas,03_validation_r/v_adae_io_validation.R,YES,YES,T-20,DOCUMENTED
ADAE,AENDY,Collected,Analysis end relative day derived from AENDT and ADSL.TRTSDT.,,,02_production_sas/A_adae_io_respec.sas,03_validation_r/v_adae_io_validation.R,YES,YES,T-20,DOCUMENTED
ADAE,AEACN,Collected,SDTM.AE/SUPPAE plus ADSL treatment and subject-level attributes.,,,02_production_sas/A_adae_io_respec.sas,03_validation_r/v_adae_io_validation.R,YES,YES,T-20,DOCUMENTED
ADAE,AEOUT,Collected,SDTM.AE/SUPPAE plus ADSL treatment and subject-level attributes.,,,02_production_sas/A_adae_io_respec.sas,03_validation_r/v_adae_io_validation.R,YES,YES,T-20,DOCUMENTED
ADAE,CQ02NAM,Collected,SDTM.AE/SUPPAE plus ADSL treatment and subject-level attributes.,,,02_production_sas/A_adae_io_respec.sas,03_validation_r/v_adae_io_validation.R,YES,YES,T-20,DOCUMENTED
ADAE,CQ02CD,Collected,SDTM.AE/SUPPAE plus ADSL treatment and subject-level attributes.,,,02_production_sas/A_adae_io_respec.sas,03_validation_r/v_adae_io_validation.R,YES,YES,T-20,DOCUMENTED
ADAE,CQ02SC,Collected,SDTM.AE/SUPPAE plus ADSL treatment and subject-level attributes.,,,02_production_sas/A_adae_io_respec.sas,03_validation_r/v_adae_io_validation.R,YES,YES,T-20,DOCUMENTED
ADAE,CIAESEQ,Collected,SDTM.AE/SUPPAE plus ADSL treatment and subject-level attributes.,,,02_production_sas/A_adae_io_respec.sas,03_validation_r/v_adae_io_validation.R,YES,YES,T-20,DOCUMENTED
ADAE,CIAESDT,Collected,SDTM.AE/SUPPAE plus ADSL treatment and subject-level attributes.,,,02_production_sas/A_adae_io_respec.sas,03_validation_r/v_adae_io_validation.R,YES,YES,T-20,DOCUMENTED
ADAE,CIAEEDT,Collected,SDTM.AE/SUPPAE plus ADSL treatment and subject-level attributes.,,,02_production_sas/A_adae_io_respec.sas,03_validation_r/v_adae_io_validation.R,YES,YES,T-20,DOCUMENTED
ADAE,CIAEDUR,Collected,SDTM.AE/SUPPAE plus ADSL treatment and subject-level attributes.,,,02_production_sas/A_adae_io_respec.sas,03_validation_r/v_adae_io_validation.R,YES,YES,T-20,DOCUMENTED
ADAE,AEOCCFL,Collected,SDTM.AE/SUPPAE plus ADSL treatment and subject-level attributes.,,,02_production_sas/A_adae_io_respec.sas,03_validation_r/v_adae_io_validation.R,YES,YES,T-20,DOCUMENTED
ADAE,TRTEMFL,Assigned,Treatment-emergent flag derived from ADAE.ASTDT and ADSL.TRTSDT.,,,02_production_sas/A_adae_io_respec.sas,03_validation_r/v_adae_io_validation.R,YES,YES,T-20,DOCUMENTED
ADAE,ADURN,Collected,Adverse event duration derived from ADAE.ASTDT and ADAE.AENDT.,,,02_production_sas/A_adae_io_respec.sas,03_validation_r/v_adae_io_validation.R,YES,YES,T-20,DOCUMENTED
ADAE,ADURU,Collected,Duration unit assigned by adverse-event derivation rule.,,,02_production_sas/A_adae_io_respec.sas,03_validation_r/v_adae_io_validation.R,YES,YES,T-20,DOCUMENTED
ADAE,AESEQ,Collected,SDTM.AE/SUPPAE plus ADSL treatment and subject-level attributes.,,,02_production_sas/A_adae_io_respec.sas,03_validation_r/v_adae_io_validation.R,YES,YES,T-20,DOCUMENTED
ADAE,TRTA,Assigned,Actual treatment assignment inherited from ADSL.TRT01A.,,,02_production_sas/A_adae_io_respec.sas,03_validation_r/v_adae_io_validation.R,YES,YES,T-20,DOCUMENTED
ADAE,TRTAN,Assigned,Numeric actual treatment assignment inherited from ADSL.TRT01AN.,,,02_production_sas/A_adae_io_respec.sas,03_validation_r/v_adae_io_validation.R,YES,YES,T-20,DOCUMENTED
ADLB,STUDYID,Protocol,Protocol identifier from study_config.yaml and SDTM study domain records.,,,02_production_sas/A_adlb_generation.sas,03_validation_r/v_adlb_validation.R,YES,YES,F-13-1; F-17-1; T-21,DOCUMENTED
ADLB,USUBJID,Collected,SDTM.DM.USUBJID.,,,02_production_sas/A_adlb_generation.sas,03_validation_r/v_adlb_validation.R,YES,YES,F-13-1; F-17-1; T-21,DOCUMENTED
ADLB,SUBJID,Collected,SDTM.DM.SUBJID.,,,02_production_sas/A_adlb_generation.sas,03_validation_r/v_adlb_validation.R,YES,YES,F-13-1; F-17-1; T-21,DOCUMENTED
ADLB,TRT01P,Assigned,Randomized/planned treatment assignment from SDTM.DM.ARM and study_config.yaml treatment map.,,,02_production_sas/A_adlb_generation.sas,03_validation_r/v_adlb_validation.R,YES,YES,F-13-1; F-17-1; T-21,DOCUMENTED
ADLB,TRTSDT,Collected,Treatment start date inherited from ADSL.TRTSDT unless defined directly for ADSL.,,,02_production_sas/A_adlb_generation.sas,03_validation_r/v_adlb_validation.R,YES,YES,F-13-1; F-17-1; T-21,DOCUMENTED
ADLB,PARAMCD,Collected,Analysis parameter code from dataset-specific parameter derivation and source test/category.,,,02_production_sas/A_adlb_generation.sas,03_validation_r/v_adlb_validation.R,YES,YES,F-13-1; F-17-1; T-21,DOCUMENTED
ADLB,PARAM,Collected,Analysis parameter label from dataset-specific parameter derivation and source test/category.,,,02_production_sas/A_adlb_generation.sas,03_validation_r/v_adlb_validation.R,YES,YES,F-13-1; F-17-1; T-21,DOCUMENTED
ADLB,PARAMN,Collected,Numeric parameter ordering from dataset-specific parameter map.,,,02_production_sas/A_adlb_generation.sas,03_validation_r/v_adlb_validation.R,YES,YES,F-13-1; F-17-1; T-21,DOCUMENTED
ADLB,PARCAT1,Collected,Analysis parameter category from dataset-specific parameter map.,,,02_production_sas/A_adlb_generation.sas,03_validation_r/v_adlb_validation.R,YES,YES,F-13-1; F-17-1; T-21,DOCUMENTED
ADLB,AVAL,Derived,Numeric lab analysis value from SDTM.LB.LBSTRESN.,MT.ADLB_AVAL,Numeric laboratory analysis value derived from SDTM.LB.LBSTRESN after parameter-specific unit standardization.,02_production_sas/A_adlb_generation.sas,03_validation_r/v_adlb_validation.R,YES,YES,F-13-1; F-17-1; T-21,DOCUMENTED
ADLB,AVALC,Derived,Character lab analysis value from SDTM.LB.LBSTRESC.,MT.ADLB_AVALC,Character laboratory analysis value derived from SDTM.LB.LBSTRESC.,02_production_sas/A_adlb_generation.sas,03_validation_r/v_adlb_validation.R,YES,YES,F-13-1; F-17-1; T-21,DOCUMENTED
ADLB,LBNRLO,Collected,"SDTM.LB plus ADSL treatment, baseline, and subject-level attributes.",,,02_production_sas/A_adlb_generation.sas,03_validation_r/v_adlb_validation.R,YES,YES,F-13-1; F-17-1; T-21,DOCUMENTED
ADLB,LBNRHI,Collected,"SDTM.LB plus ADSL treatment, baseline, and subject-level attributes.",,,02_production_sas/A_adlb_generation.sas,03_validation_r/v_adlb_validation.R,YES,YES,F-13-1; F-17-1; T-21,DOCUMENTED
ADLB,LBNRIND,Collected,"SDTM.LB plus ADSL treatment, baseline, and subject-level attributes.",,,02_production_sas/A_adlb_generation.sas,03_validation_r/v_adlb_validation.R,YES,YES,F-13-1; F-17-1; T-21,DOCUMENTED
ADLB,AVISIT,Collected,Analysis visit derived from source visit/date and dataset-specific visit window rules.,,,02_production_sas/A_adlb_generation.sas,03_validation_r/v_adlb_validation.R,YES,YES,F-13-1; F-17-1; T-21,DOCUMENTED
ADLB,AVISITN,Collected,Numeric analysis visit derived from AVISIT and dataset-specific visit ordering.,,,02_production_sas/A_adlb_generation.sas,03_validation_r/v_adlb_validation.R,YES,YES,F-13-1; F-17-1; T-21,DOCUMENTED
ADLB,AWDIST,Collected,"SDTM.LB plus ADSL treatment, baseline, and subject-level attributes.",,,02_production_sas/A_adlb_generation.sas,03_validation_r/v_adlb_validation.R,YES,YES,F-13-1; F-17-1; T-21,DOCUMENTED
ADLB,ATOXGR,Derived,"Analysis toxicity grade derived from SDTM.LB result, normal range, and grading rules.",MT.ADLB_ATOXGR,"Analysis toxicity grade derived from laboratory result, normal range, and grading rules.",02_production_sas/A_adlb_generation.sas,03_validation_r/v_adlb_validation.R,YES,YES,F-13-1; F-17-1; T-21,DOCUMENTED
ADLB,BASE,Derived,Baseline numeric value selected from pre-treatment ADLB.AVAL records.,MT.ADLB_BASE,Baseline numeric value selected from the latest eligible pre-treatment ADLB.AVAL record.,02_production_sas/A_adlb_generation.sas,03_validation_r/v_adlb_validation.R,YES,YES,F-13-1; F-17-1; T-21,DOCUMENTED
ADLB,BASEC,Derived,Baseline character value selected from pre-treatment ADLB.AVALC records.,MT.ADLB_BASEC,Baseline character value selected from the latest eligible pre-treatment ADLB.AVALC record.,02_production_sas/A_adlb_generation.sas,03_validation_r/v_adlb_validation.R,YES,YES,F-13-1; F-17-1; T-21,DOCUMENTED
ADLB,BTOXGR,Collected,Baseline toxicity grade selected from pre-treatment records.,,,02_production_sas/A_adlb_generation.sas,03_validation_r/v_adlb_validation.R,YES,YES,F-13-1; F-17-1; T-21,DOCUMENTED
ADLB,CHG,Derived,Change from baseline derived as ADLB.AVAL minus ADLB.BASE.,MT.ADLB_CHG,Change from baseline calculated as ADLB.AVAL minus ADLB.BASE.,02_production_sas/A_adlb_generation.sas,03_validation_r/v_adlb_validation.R,YES,YES,F-13-1; F-17-1; T-21,DOCUMENTED
ADLB,PCHG,Derived,Percent change from baseline derived as ADLB.CHG divided by ADLB.BASE.,MT.ADLB_PCHG,Percent change from baseline calculated as 100 times ADLB.CHG divided by ADLB.BASE.,02_production_sas/A_adlb_generation.sas,03_validation_r/v_adlb_validation.R,YES,YES,F-13-1; F-17-1; T-21,DOCUMENTED
ADLB,ANL01FL,Collected,Analysis inclusion flag derived from dataset-specific record-selection rules.,,,02_production_sas/A_adlb_generation.sas,03_validation_r/v_adlb_validation.R,YES,YES,F-13-1; F-17-1; T-21,DOCUMENTED
ADLB,BASEFL,Derived,Baseline flag derived from pre-treatment record-selection rules.,MT.ADLB_BASEFL,Baseline flag set on the selected eligible pre-treatment laboratory record.,02_production_sas/A_adlb_generation.sas,03_validation_r/v_adlb_validation.R,YES,YES,F-13-1; F-17-1; T-21,DOCUMENTED
ADLB,LBDY,Collected,"SDTM.LB plus ADSL treatment, baseline, and subject-level attributes.",,,02_production_sas/A_adlb_generation.sas,03_validation_r/v_adlb_validation.R,YES,YES,F-13-1; F-17-1; T-21,DOCUMENTED
ADLB,ADT,Derived,Analysis date from SDTM.LB.LBDTC.,MT.ADLB_ADT,Analysis date derived from SDTM.LB.LBDTC.,02_production_sas/A_adlb_generation.sas,03_validation_r/v_adlb_validation.R,YES,YES,F-13-1; F-17-1; T-21,DOCUMENTED
ADRS,STUDYID,Protocol,Protocol identifier from study_config.yaml and SDTM study domain records.,,,02_production_sas/A_adrs_generation.sas,03_validation_r/v_adrs_validation.R,YES,YES,T-11 response analyses,DOCUMENTED
ADRS,USUBJID,Collected,SDTM.DM.USUBJID.,,,02_production_sas/A_adrs_generation.sas,03_validation_r/v_adrs_validation.R,YES,YES,T-11 response analyses,DOCUMENTED
ADRS,SUBJID,Collected,SDTM.DM.SUBJID.,,,02_production_sas/A_adrs_generation.sas,03_validation_r/v_adrs_validation.R,YES,YES,T-11 response analyses,DOCUMENTED
ADRS,TRT01P,Assigned,Randomized/planned treatment assignment from SDTM.DM.ARM and study_config.yaml treatment map.,,,02_production_sas/A_adrs_generation.sas,03_validation_r/v_adrs_validation.R,YES,YES,T-11 response analyses,DOCUMENTED
ADRS,TRTSDT,Collected,Treatment start date inherited from ADSL.TRTSDT unless defined directly for ADSL.,,,02_production_sas/A_adrs_generation.sas,03_validation_r/v_adrs_validation.R,YES,YES,T-11 response analyses,DOCUMENTED
ADRS,PARAMCD,Collected,Analysis parameter code from dataset-specific parameter derivation and source test/category.,,,02_production_sas/A_adrs_generation.sas,03_validation_r/v_adrs_validation.R,YES,YES,T-11 response analyses,DOCUMENTED
ADRS,PARAM,Collected,Analysis parameter label from dataset-specific parameter derivation and source test/category.,,,02_production_sas/A_adrs_generation.sas,03_validation_r/v_adrs_validation.R,YES,YES,T-11 response analyses,DOCUMENTED
ADRS,AVALC,Derived,Character response result from response source assessments and response derivation rules.,MT.ADRS_AVALC,Character response result derived from response source assessments and response derivation rules.,02_production_sas/A_adrs_generation.sas,03_validation_r/v_adrs_validation.R,YES,YES,T-11 response analyses,DOCUMENTED
ADRS,ADT,Collected,Analysis date derived from the source assessment date.,,,02_production_sas/A_adrs_generation.sas,03_validation_r/v_adrs_validation.R,YES,YES,T-11 response analyses,DOCUMENTED
ADRS,ADY,Collected,Analysis relative day derived from ADT and ADSL.TRTSDT.,,,02_production_sas/A_adrs_generation.sas,03_validation_r/v_adrs_validation.R,YES,YES,T-11 response analyses,DOCUMENTED
ADRS,AVISIT,Collected,Analysis visit derived from source visit/date and dataset-specific visit window rules.,,,02_production_sas/A_adrs_generation.sas,03_validation_r/v_adrs_validation.R,YES,YES,T-11 response analyses,DOCUMENTED
ADRS,ANL01FL,Collected,Analysis inclusion flag derived from dataset-specific record-selection rules.,,,02_production_sas/A_adrs_generation.sas,03_validation_r/v_adrs_validation.R,YES,YES,T-11 response analyses,DOCUMENTED
ADRS,AVAL,Derived,Numeric response category from ADRS.AVALC response ordering map.,MT.ADRS_AVAL,Numeric response category derived from ADRS.AVALC response ordering.,02_production_sas/A_adrs_generation.sas,03_validation_r/v_adrs_validation.R,YES,YES,T-11 response analyses,DOCUMENTED
ADTTE,STUDYID,Protocol,Protocol identifier from study_config.yaml and SDTM study domain records.,,,02_production_sas/A_adtte_generation.sas,03_validation_r/v_adtte_validation.R,YES,YES,F-11-1; F-11-2; F-12-1; T-11 survival analyses,DOCUMENTED
ADTTE,USUBJID,Collected,SDTM.DM.USUBJID.,,,02_production_sas/A_adtte_generation.sas,03_validation_r/v_adtte_validation.R,YES,YES,F-11-1; F-11-2; F-12-1; T-11 survival analyses,DOCUMENTED
ADTTE,SUBJID,Collected,SDTM.DM.SUBJID.,,,02_production_sas/A_adtte_generation.sas,03_validation_r/v_adtte_validation.R,YES,YES,F-11-1; F-11-2; F-12-1; T-11 survival analyses,DOCUMENTED
ADTTE,SITEID,Collected,SDTM.DM.SITEID.,,,02_production_sas/A_adtte_generation.sas,03_validation_r/v_adtte_validation.R,YES,YES,F-11-1; F-11-2; F-12-1; T-11 survival analyses,DOCUMENTED
ADTTE,TRT01P,Assigned,Randomized/planned treatment assignment from SDTM.DM.ARM and study_config.yaml treatment map.,,,02_production_sas/A_adtte_generation.sas,03_validation_r/v_adtte_validation.R,YES,YES,F-11-1; F-11-2; F-12-1; T-11 survival analyses,DOCUMENTED
ADTTE,TRT01PN,Assigned,Numeric planned treatment assignment from study_config.yaml treatment map.,,,02_production_sas/A_adtte_generation.sas,03_validation_r/v_adtte_validation.R,YES,YES,F-11-1; F-11-2; F-12-1; T-11 survival analyses,DOCUMENTED
ADTTE,ITTFL,Derived,Inherited from ADSL.ITTFL.,MT.ADTTE_ITTFL,Intent-to-treat flag inherited from ADSL.ITTFL.,02_production_sas/A_adtte_generation.sas,03_validation_r/v_adtte_validation.R,YES,YES,F-11-1; F-11-2; F-12-1; T-11 survival analyses,DOCUMENTED
ADTTE,SAFFL,Derived,Inherited from ADSL.SAFFL.,MT.ADTTE_SAFFL,Safety population flag inherited from ADSL.SAFFL.,02_production_sas/A_adtte_generation.sas,03_validation_r/v_adtte_validation.R,YES,YES,F-11-1; F-11-2; F-12-1; T-11 survival analyses,DOCUMENTED
ADTTE,PARAMCD,Collected,Analysis parameter code from dataset-specific parameter derivation and source test/category.,,,02_production_sas/A_adtte_generation.sas,03_validation_r/v_adtte_validation.R,YES,YES,F-11-1; F-11-2; F-12-1; T-11 survival analyses,DOCUMENTED
ADTTE,PARAM,Collected,Analysis parameter label from dataset-specific parameter derivation and source test/category.,,,02_production_sas/A_adtte_generation.sas,03_validation_r/v_adtte_validation.R,YES,YES,F-11-1; F-11-2; F-12-1; T-11 survival analyses,DOCUMENTED
ADTTE,PARAMN,Derived,Numeric parameter ordering from ADTTE.PARAMCD.,MT.ADTTE_PARAMN,Numeric ADTTE parameter ordering derived from ADTTE.PARAMCD.,02_production_sas/A_adtte_generation.sas,03_validation_r/v_adtte_validation.R,YES,YES,F-11-1; F-11-2; F-12-1; T-11 survival analyses,DOCUMENTED
ADTTE,PARCAT1,Derived,Time-to-event category from ADTTE.PARAMCD.,MT.ADTTE_PARCAT1,Time-to-event parameter category derived from ADTTE.PARAMCD.,02_production_sas/A_adtte_generation.sas,03_validation_r/v_adtte_validation.R,YES,YES,F-11-1; F-11-2; F-12-1; T-11 survival analyses,DOCUMENTED
ADTTE,STARTDT,Collected,"ADSL subject-level attributes plus SDTM.DS, SDTM.RS/LS, SDTM.AE, and death/progression source dates by PARAMCD.",,,02_production_sas/A_adtte_generation.sas,03_validation_r/v_adtte_validation.R,YES,YES,F-11-1; F-11-2; F-12-1; T-11 survival analyses,DOCUMENTED
ADTTE,ADT,Collected,Analysis date derived from the source assessment date.,,,02_production_sas/A_adtte_generation.sas,03_validation_r/v_adtte_validation.R,YES,YES,F-11-1; F-11-2; F-12-1; T-11 survival analyses,DOCUMENTED
ADTTE,CNSR,Derived,Censoring indicator derived from event/censor source dates by ADTTE.PARAMCD.,MT.CNSR_TTE,"Censoring indicator, set to 0 if the event occurred, or 1 if censored.",02_production_sas/A_adtte_generation.sas,03_validation_r/v_adtte_validation.R,YES,YES,F-11-1; F-11-2; F-12-1; T-11 survival analyses,DOCUMENTED
ADTTE,EVNTDESC,Collected,"ADSL subject-level attributes plus SDTM.DS, SDTM.RS/LS, SDTM.AE, and death/progression source dates by PARAMCD.",,,02_production_sas/A_adtte_generation.sas,03_validation_r/v_adtte_validation.R,YES,YES,F-11-1; F-11-2; F-12-1; T-11 survival analyses,DOCUMENTED
ADTTE,CNSDTDSC,Collected,"ADSL subject-level attributes plus SDTM.DS, SDTM.RS/LS, SDTM.AE, and death/progression source dates by PARAMCD.",,,02_production_sas/A_adtte_generation.sas,03_validation_r/v_adtte_validation.R,YES,YES,F-11-1; F-11-2; F-12-1; T-11 survival analyses,DOCUMENTED
ADTTE,AVAL,Derived,"Time-to-event duration derived from ADTTE.STARTDT, ADTTE.ADT, and ADTTE.AVALU.",MT.AVAL_TTE,"Time-to-event duration in days, calculated as: ADT - STARTDT + 1.",02_production_sas/A_adtte_generation.sas,03_validation_r/v_adtte_validation.R,YES,YES,F-11-1; F-11-2; F-12-1; T-11 survival analyses,DOCUMENTED
ADTTE,AVALU,Derived,Time-to-event unit assigned by ADTTE parameter derivation.,MT.ADTTE_AVALU,Time-to-event unit assigned by ADTTE parameter derivation.,02_production_sas/A_adtte_generation.sas,03_validation_r/v_adtte_validation.R,YES,YES,F-11-1; F-11-2; F-12-1; T-11 survival analyses,DOCUMENTED
ADEX,PARAMN,Derived,Numeric parameter ordering from ADEX.PARAMCD.,MT.ADEX_PARAMN,Numeric ADEX parameter ordering derived from ADEX.PARAMCD.,02_production_sas/A_adex_generation.sas,03_validation_r/v_adex_validation.R,YES,YES,F-14-1; F-17-1,DOCUMENTED
ADEX,AVISITN,Derived,Numeric analysis visit derived from ADEX.AVISIT and SDTM.EX sequence/date.,MT.ADEX_AVISITN,Numeric ADEX analysis visit derived from ADEX.AVISIT and SDTM.EX date or sequence ordering.,02_production_sas/A_adex_generation.sas,03_validation_r/v_adex_validation.R,YES,YES,F-14-1; F-17-1,DOCUMENTED
