{
  "_meta": {
    "document_id": "TROPIC-CDI-E2E-v2.0",
    "title": "End-to-End Clinical Data Infrastructure Protocol — TROPIC Trial (Full Rebuild)",
    "version": "2.0",
    "changelog": {
      "v1.0": "Initial specification",
      "v2.0": "Full rebuild — added ADEX/ADEXSUM, ADCM, exposure-response Optimus model, subgroup forest plot TFLs, sensitivity analyses, hierarchical multiplicity control, Git/version control layer, cibuild.py dry-run/rollback, complete R Pharmaverse toolchain (metacore/metatools/xportr/logrx), corrected all v1.0 gaps"
    }
  },

  "protocol": {
    "data_source": {
      "platform": "Project Data Sphere (PDS)",
      "url": "https://data.projectdatasphere.org",
      "provider": "Sanofi US",
      "access_model": "Open access. PDS Terms of Use agreement only. No IRB required under HIPAA Privacy Rule for de-identified secondary research.",
      "trial_id": "NCT00417079",
      "trial_name": "TROPIC",
      "primary_publication": "de Bono JS et al. Lancet 2010;376(9747):1147-1154",
      "data_cutoff": "2010-03-10",
      "n_total": 755,
      "pds_data_enrichments": [
        "MEPS linkage (RTI International) — socioeconomic augmentation layer",
        "Prostate Cancer DREAM Challenge curation — 129 baseline clinical variables, 5 standardized raw event-level tables"
      ]
    },
    "regulatory_basis": {
      "adam_ig": "v1.3 — mandatory for NDA/BLA/IND from 2024-03-15 (Federal Register)",
      "sdtm_ig": "3.4",
      "occds": "v1.1 (supersedes v1.0)",
      "define_xml": "v2.1 — mandatory after 2024-04-01",
      "submission_format": "XPT v5 — currently mandatory. Dataset-JSON v1.1 under FDA evaluation (FR notice 2025-04-09); not submittable without prior FDA agreement",
      "validation_tool": "Pinnacle 21 Community (free) / Enterprise — FDA uses P21 Enterprise internally",
      "alcoa_plus": "ICH E6(R3)",
      "electronic_records": "21 CFR Part 11",
      "multiplicity_guidance": "ICH E9 Statistical Principles for Clinical Trials",
      "dose_optimization": "FDA Project Optimus final guidance (August 2024)",
      "reviewer_guides": "ADRG + SDRG required for all eCTD Module 5 packages"
    }
  },

  "trial_context": {
    "indication": "Metastatic castration-resistant prostate cancer (mCRPC)",
    "phase": "III",
    "design": "Randomized, open-label, active-controlled, multinational (146 centres, 26 countries)",
    "cycle_structure": "3-week (21-day) cycles, IV infusion Day 1 of each cycle",
    "arms": {
      "experimental": {"label": "CbzP", "treatment": "Cabazitaxel 25 mg/m² IV q3w + Prednisone 10 mg/day oral", "n": 378},
      "control":      {"label": "MP",   "treatment": "Mitoxantrone 12 mg/m² IV q3w + Prednisone 10 mg/day oral", "n": 377}
    },
    "endpoints": {
      "primary": "Overall Survival (OS)",
      "secondary_confirmatory": [
        "Progression-Free Survival (PFS) — composite: radiological + PSA + pain progression or death",
        "PSA Response Rate (≥50% decline from baseline, confirmed)",
        "Objective Response Rate (RECIST 1.1, measurable disease subset)"
      ],
      "secondary_exploratory": [
        "Time to PSA Progression (PCWG3 rules)",
        "Time to Pain Progression (PPI + analgesic score criteria)",
        "Duration of Response (DOR)"
      ],
      "safety": "CTCAE v3.0 graded AEs, dose delays/reductions/discontinuations",
      "optimus_kinetic": "ANC nadir, ANC recovery latency, Relative Dose Intensity (RDI) — exposure-response analysis"
    },
    "multiplicity_control": {
      "framework": "Hierarchical gatekeeping step-down procedure (ICH E9)",
      "alpha": "2-sided 0.05 (family-wise error rate)",
      "testing_sequence": [
        {"step": 1, "endpoint": "OS (primary)", "alpha": 0.05, "gate": "Must be significant to proceed"},
        {"step": 2, "endpoint": "PFS", "alpha": 0.05, "gate": "Tested only if OS significant"},
        {"step": 3, "endpoint": "PSA Response Rate", "alpha": 0.05, "gate": "Tested only if PFS significant"},
        {"step": 4, "endpoint": "ORR", "alpha": 0.05, "gate": "Tested only if PSA Response significant"}
      ],
      "note": "All endpoints beyond Step 4 are exploratory — no alpha protected. Subgroup analyses are descriptive only, no formal multiplicity adjustment."
    },
    "response_criteria": {
      "soft_tissue": "RECIST 1.1",
      "bone": "PCWG3 — bone scan progression; first new lesion must be confirmed at ≥6 weeks",
      "psa_progression": "PCWG3 — ≥25% rise above nadir AND ≥2 ng/mL above nadir, confirmed ≥3 weeks later",
      "pain": "McGill-Melzack Present Pain Intensity (PPI) ≥2 OR analgesic score ≥10",
      "note_ctcae": "TROPIC used CTCAE v3.0. PCWG3 criteria are retrospective overlay (PCWG2 was current in 2010). Document in ADRG."
    },
    "known_safety_signals": {
      "neutropenia_grade34": "82% (CbzP) vs 58% (MP)",
      "febrile_neutropenia": "8% (CbzP) vs 1% (MP)",
      "diarrhea_any": "47% (CbzP) vs 11% (MP)",
      "fatal_within_30d": "5% (CbzP) vs <2% (MP)",
      "gcsf_confounder": "G-CSF use is the primary confounder for ANC kinetics. ADCM G-CSF flag is mandatory before any Optimus analysis."
    }
  },

  "source_data_inventory": {
    "note": "Variable names reflect DREAM Challenge standardized curation of TROPIC PDS data. Verify against your PDS data dictionary on first download — PDS may use company-specific names before SDTM mapping.",
    "raw_event_tables": {
      "demographics":        {"sdtm": "DM",  "key_vars": ["SUBJID","AGE","RACE","COUNTRY","REGION","RANDDT","ARM","ACTARM","ECOGBL"]},
      "adverse_events":      {"sdtm": "AE",  "key_vars": ["SUBJID","AEDECOD","AEBODSYS","AEHLT","AESEV","AETOXGR","AESER","AEREL","AESTDTC","AEENDTC","AEOUT","AEACN"]},
      "laboratory": {
        "sdtm": "LB",
        "key_vars": ["SUBJID","VISIT","VISITNUM","LBTESTCD","LBTEST","LBORRES","LBSTRESN","LBSTRESU","LBNRLO","LBNRHI","LBNRIND","LBDTC"],
        "panels": {
          "hematology": ["ANC","HGB","PLT","WBC","LYM","NEU"],
          "chemistry":  ["ALB","ALP","ALT","AST","BILI","CREAT","LDH","GGT"],
          "tumor_marker": ["PSA"]
        }
      },
      "exposure":            {"sdtm": "EX",  "key_vars": ["SUBJID","EXTRT","EXDOSE","EXDOSU","EXROUTE","EXSTDTC","EXENDTC","EXSEQ","VISIT","EXADJ"]},
      "concomitant_meds":    {"sdtm": "CM",  "key_vars": ["SUBJID","CMDECOD","CMCAT","CMINDC","CMSTDTC","CMENDTC","CMTRT","ATC4"]},
      "disposition":         {"sdtm": "DS",  "key_vars": ["SUBJID","DSDECOD","DSTERM","DSSTDTC","DSCAT","EPOCH"]},
      "vital_signs":         {"sdtm": "VS",  "key_vars": ["SUBJID","VSTESTCD","VSORRES","VSORRESU","VSSTRESN","VSSTRESU","VSDTC","VISIT"]},
      "tumor_response":      {"sdtm": "RS",  "key_vars": ["SUBJID","RSTEST","RSORRES","RSSTRESC","RSDTC","VISIT","RSEVAL"], "note": "PCWG3 bone + RECIST 1.1 soft tissue"},
      "tumor_lesions":       {"sdtm": "TR",  "key_vars": ["SUBJID","TRLINKID","TRTESTCD","TRORRES","TRSTRESN","TRDTC","VISIT"]},
      "survival_followup":   {"sdtm": "DM+DS derived", "key_vars": ["SUBJID","DTHFL","DTHDTC","LSTALVDTC"]}
    },
    "critical_sdtm_derivations": [
      {"var": "USUBJID",  "rule": "Concatenate: STUDYID || '-' || SITEID || '-' || SUBJID"},
      {"var": "TRTSDT",   "rule": "min(EXSTDTC) per USUBJID — treatment start anchor for all ADY calculations"},
      {"var": "ADY",      "rule": "ADTC - TRTSDT + 1 (positive post-baseline); day of dose = 1"},
      {"var": "DTHFL",    "rule": "DS.DSDECOD = 'DEATH' → Y; else N"},
      {"var": "DTHDTC",   "rule": "DS.DSSTDTC where DSDECOD = 'DEATH', ISO 8601 format"},
      {"var": "LBTOXGR",  "rule": "CTCAE v3.0 grade from LBSTRESN vs LBNRLO/LBNRHI. ANC: G1 <LLN–1000, G2 <1000–800, G3 <800–500, G4 <500/mm³"},
      {"var": "NACTDT",   "rule": "min(CMSTDTC) where CM.CMCAT = 'ANTI-CANCER THERAPY' and CMSTDTC > TRTSDT — new anti-cancer therapy start date for PFS censoring"}
    ]
  },

  "adam_datasets": {

    "ADSL": {
      "structure": "One record per subject",
      "standard": "ADaMIG v1.3 Section 3",
      "sas_program": "A_adsl_generation.sas",
      "r_program": "v_adsl_validation.R",
      "r_functions": ["admiral::derive_vars_merged()","admiral::derive_var_disposition_dt()","admiral::derive_vars_extreme_flag()","metatools::check_ct_data()","xportr::xportr_write()"],
      "key_variables": {
        "identifiers": ["STUDYID","USUBJID","SUBJID","SITEID","COUNTRY","REGION"],
        "demographics": ["AGE","AGEGR1","AGEGR1N","RACE","ETHNIC","SEX"],
        "treatment": ["TRT01P","TRT01PN","TRT01A","TRT01AN","RANDDT","TRTSDT","TRTEDTM","TRTDURD"],
        "population_flags": {
          "ITTFL":    "All randomized subjects — primary analysis set",
          "SAFFL":    "Received ≥1 dose of study drug",
          "PPROTFL":  "No major protocol deviations — per-protocol set"
        },
        "survival_vars": ["DTHFL","DTHDT","DTHCAUS","LSTALVDT"],
        "subgroup_covariates": {
          "ECOGBL":   "Baseline ECOG PS (0-1 vs 2) — pre-specified subgroup",
          "MEASDISFL":"Measurable disease Y/N by RECIST 1.1",
          "VISCFL":   "Visceral metastasis Y/N at baseline",
          "PAINBL":   "Baseline pain: PPI ≥2 OR analgesic score ≥10",
          "PSABL":    "PSA at baseline (ng/mL) — continuous and categorized",
          "ALPBL":    "Alkaline phosphatase at baseline (U/L) — ≤ULN vs >ULN",
          "ALBBL":    "Albumin at baseline (g/dL)",
          "LDHBL":    "LDH at baseline (U/L)",
          "HGBBL":    "Hemoglobin at baseline (g/dL)",
          "AGEGR1":   "Age group: <65 vs ≥65",
          "DOCPROG":  "Docetaxel progression timing: during vs after last dose",
          "DOCRESP":  "Prior docetaxel response Y/N"
        }
      },
      "derivation_notes": {
        "AGEGR1":   "<65 / ≥65 per pre-specified SAP subgroup definition",
        "TRTDURD":  "TRTEDTM - TRTSDT + 1 in days",
        "DTHDT":    "From DS domain; ISO 8601 → SAS date via INPUT(DTHDTC, e8601da.)"
      }
    },

    "ADEX": {
      "structure": "One record per subject per exposure parameter per visit (BDS)",
      "standard": "ADaMIG v1.3 BDS — ICH E3 exposure characterization",
      "sas_program": "A_adex_generation.sas",
      "r_program": "v_adex_validation.R",
      "r_functions": ["admiral::derive_vars_dt()","admiral::derive_param_doseint()","metatools::order_cols()","xportr::xportr_write()"],
      "purpose": "Characterize cabazitaxel and mitoxantrone exposure per cycle and overall. Required for Project Optimus dose-response modeling. BSA reset flagged when weight changes ≥10% from baseline.",
      "bsa_note": "Cabazitaxel dosed at 25 mg/m² — BSA from VS domain (weight+height). Reset BSA baseline when VS weight changes ≥10% from previous baseline per protocol. Typical BSA ~1.84 m² (population PK reference).",
      "parameters": [
        {"PARAMCD": "PERFDOSE",  "PARAM": "Actual Dose Administered (mg/m²)",          "derivation": "EXDOSE / BSA per cycle visit", "PARCAT1": "INDIVIDUAL"},
        {"PARAMCD": "PLDOSE",    "PARAM": "Planned Dose (mg/m²)",                       "derivation": "Protocol specified dose: 25 mg/m² (CbzP), 12 mg/m² (MP)", "PARCAT1": "INDIVIDUAL"},
        {"PARAMCD": "CUMDOSE",   "PARAM": "Cumulative Actual Dose (mg/m²)",              "derivation": "Running sum of PERFDOSE per subject through each cycle", "PARCAT1": "SUMMARY"},
        {"PARAMCD": "NCYCLE",    "PARAM": "Number of Cycles Received",                   "derivation": "Count of EX records per subject", "PARCAT1": "SUMMARY"},
        {"PARAMCD": "TRTDURD",   "PARAM": "Treatment Duration (days)",                   "derivation": "max(EXENDTC) - min(EXSTDTC) + 1 per subject", "PARCAT1": "SUMMARY"},
        {"PARAMCD": "ADI",       "PARAM": "Actual Dose Intensity (mg/m²/3wk)",           "derivation": "CUMDOSE / (TRTDURD / 21) — cumulative dose divided by number of 3-week periods", "PARCAT1": "SUMMARY"},
        {"PARAMCD": "PDI",       "PARAM": "Planned Dose Intensity (mg/m²/3wk)",          "derivation": "Planned dose × NCYCLE × 3 / TRTDURD in weeks × 3", "PARCAT1": "SUMMARY"},
        {"PARAMCD": "RDI",       "PARAM": "Relative Dose Intensity (%)",                 "derivation": "(ADI / PDI) × 100. Round to 1 decimal.", "PARCAT1": "SUMMARY"},
        {"PARAMCD": "RDIDL",     "PARAM": "Relative Dose Intensity Category",            "derivation": "AVALCAT1: ≥85% / 65–<85% / <65% — thresholds per SAP", "PARCAT1": "SUMMARY"},
        {"PARAMCD": "NDELDOSE",  "PARAM": "Number of Dose Delays",                       "derivation": "Count of cycles where (EXSTDTC_curr - EXSTDTC_prev) > 24 days (21-day cycle + 3-day tolerance)", "PARCAT1": "SUMMARY"},
        {"PARAMCD": "NREDDOSE",  "PARAM": "Number of Dose Reductions",                   "derivation": "Count of cycles where EXDOSE < prior cycle EXDOSE per subject", "PARCAT1": "SUMMARY"},
        {"PARAMCD": "ADJ",       "PARAM": "Dose Adjusted Flag",                          "derivation": "AVALC = Y if EXADJ not missing — maps to dose modification reason", "PARCAT1": "INDIVIDUAL"},
        {"PARAMCD": "ADJAE",     "PARAM": "Dose Adjusted Due to AE Flag",               "derivation": "AVALC = Y if EXADJ = 'ADVERSE EVENT'", "PARCAT1": "INDIVIDUAL"}
      ],
      "optimus_linkage": "RDI and CUMDOSE from ADEX are the exposure inputs to the ANC nadir exposure-response model. Join ADEX (PARAMCD=RDI) to ADLB (PARAMCD=ANCNADIR) by USUBJID and cycle number for Optimus scatter plots."
    },

    "ADCM": {
      "structure": "One record per subject per concomitant medication (OCCDS v1.1)",
      "standard": "ADaMIG v1.3 + OCCDS v1.1",
      "sas_program": "A_adcm_generation.sas",
      "r_program": "v_adcm_validation.R",
      "r_functions": ["admiral::derive_vars_merged()","admiral::derive_var_trtemfl()"],
      "purpose": "Characterize G-CSF use (primary safety confounder), new anti-cancer therapy (PFS censor date source), and prednisone compliance (protocol-mandated).",
      "critical_flags": {
        "GCSFFL":   "G-CSF received Y/N — from CM where CMDECOD IN ('FILGRASTIM','PEGFILGRASTIM','LENOGRASTIM'). Flag per subject per cycle. Required stratifier for all ANC kinetic analyses.",
        "GCSFPRFL": "G-CSF prophylactic use Y/N — CMINDC = 'PROPHYLAXIS' within 3 days of cabazitaxel infusion",
        "NACTFL":   "New anti-cancer therapy Y/N — CM.CMCAT = 'ANTI-CANCER THERAPY' after TRTSDT",
        "NACTDT":   "First date of new anti-cancer therapy — min(CMSTDTC) where NACTFL=Y. This variable propagates to ADSL and feeds ADTTE PFS censoring.",
        "PREDNFL":  "Prednisone/prednisolone received Y/N — protocol-mandated co-medication compliance check"
      },
      "key_variables": ["STUDYID","USUBJID","CMSEQ","CMDECOD","CMCAT","CMSCAT","CMTRT","CMINDC","ASTDT","AENDT","ASTDY","TRTEMFL","GCSFFL","GCSFPRFL","NACTFL","NACTDT","PREDNFL"],
      "analytic_use": [
        "Stratify ADLB ANC nadir analysis by GCSFFL — G-CSF artificially elevates post-nadir ANC, biasing Optimus kinetic estimates if not accounted for",
        "NACTDT feeds ADTTE PFS censoring algorithm (Step 3 in PFS censoring hierarchy)",
        "G-CSF prophylaxis rate by arm is a required safety TFL (T-15-1)"
      ]
    },

    "ADAE": {
      "structure": "One record per subject per adverse event (OCCDS v1.1)",
      "standard": "ADaMIG v1.3 + OCCDS v1.1",
      "sas_program": "A_adae_io_respec.sas",
      "r_program": "v_adae_io_validation.R",
      "r_functions": ["admiral::derive_vars_dt()","admiral::derive_var_trtemfl()","admiral::derive_vars_merged()"],
      "key_variables": {
        "identifiers": ["STUDYID","USUBJID","AESEQ"],
        "meddra": ["AEDECOD","AEBODSYS","AEHLT","AEHLGT","AESOC"],
        "timing": ["ASTDT","AENDT","ASTDY","AENDY","ADURN","ADURU"],
        "severity": ["AESEV","ATOXGR","ATOXGRS"],
        "flags": {
          "TRTEMFL": "Treatment-emergent: ASTDT >= TRTSDT AND (AENDT >= TRTSDT OR missing). CRITICAL: must be derived first before any safety summary.",
          "AEOCCFL": "OCCDS v1.1 denominator flag. Y = first record of each distinct continuous episode (CIAESEQ). One Y per CIAESEQ per CQ02NAM per subject. NOT simply first.CQ02NAM.",
          "AESER":   "Serious AE (from source)",
          "AEREL":   "Related to study drug",
          "AEDTH":   "Fatal outcome: Y where AEOUT = 'FATAL'"
        },
        "custom_sponsor_vars": {
          "warning": "Non-standard variables — register all in Define-XML v2.1 as origin=Derived with derivation algorithm. Document in ADRG Section 4.",
          "CQ02NAM":  "Customized Query 02 Name — MedDRA grouping of hematologic irAEs: neutropenia, febrile neutropenia, leukopenia",
          "CIAESEQ":  "Continuous episode sequence — increments when gap between AE episodes >3 days",
          "CIAESDT":  "Continuous episode start date — min(ASTDT) within CIAESEQ",
          "CIAEEDT":  "Continuous episode end date — max(AENDT) within CIAESEQ",
          "CIAEDUR":  "Episode duration months — (CIAEEDT - CIAESDT + 1) / 30.4375"
        }
      },
      "episode_merging_rule": {
        "gap_threshold_days": 3,
        "clinical_rationale": "Cabazitaxel ANC nadir typically Day 8-12 of cycle; recovery by Day 18-21. AEs with gap ≤3 days represent physiological continuation of the same myelosuppression episode, not a new event. Inflating episode count distorts incidence denominators and Optimus dose-response modeling.",
        "aeoccfl_correction": "AEOCCFL = Y for the FIRST RECORD of EACH CIAESEQ, not just first.CQ02NAM. Each new episode sequence needs its own Y denominator. This was the critical v1.0 bug.",
        "regulatory_basis": "OCCDS v1.1 Section 4.2 — sponsor-defined episode definition; document fully in ADRG"
      },
      "sas_logic_pattern": {
        "note": "Use RETAIN only for _ciaeseq/_ciaesdt/_ciaeedt tracking variables, not for AEOCCFL itself. Initialize AEOCCFL within each by-group branch explicitly.",
        "key_step": "if first.cq02nam OR astdt > (_ciaeedt + 3) then do; _ciaeseq + 1; AEOCCFL = 'Y'; ... end; else do; _ciaeedt = max(_ciaeedt, aendt); AEOCCFL = 'N'; end;"
      }
    },

    "ADLB": {
      "structure": "One record per subject per parameter per analysis visit (BDS)",
      "standard": "ADaMIG v1.3 BDS",
      "sas_program": "A_adlb_generation.sas",
      "r_program": "v_adlb_validation.R",
      "r_functions": ["admiral::derive_var_extreme_flag()","fuzzyjoin::fuzzy_left_join()","admiral::derive_vars_merged()"],
      "key_variables": {
        "parameter":  ["PARAMCD","PARAM","PARAMN","PARCAT1"],
        "timing":     ["ADT","ADY","AVISIT","AVISITN","DTYPE","AWDIST"],
        "values":     ["AVAL","AVALC","BASE","BASEC","CHG","PCHG"],
        "toxicity":   ["ATOXGR","BTOXGR","BNRIND","ANRIND"],
        "flags": {
          "ANL01FL": "Y for single best record per subject × PARAMCD × AVISITN. Resolution: (1) minimum AWDIST (closest to target day), (2) descending ATOXGR. NO RETAIN — initialize explicitly at each first.avisitn.",
          "BASEFL":  "Baseline record flag — last pre-treatment (ADY ≤ 0)",
          "ABLFL":   "Actual baseline flag"
        }
      },
      "analysis_windows": [
        {"AVISITN": 0,  "AVISIT": "Baseline",          "ady_lo": null, "ady_hi": 0,   "target_day": -1, "note": "Last non-missing assessment on or before first dose"},
        {"AVISITN": 1,  "AVISIT": "Cycle 1 Day 8",     "ady_lo": 4,   "ady_hi": 13,  "target_day": 8,  "note": "Primary nadir window — peak myelosuppression"},
        {"AVISITN": 2,  "AVISIT": "Cycle 1 Day 15",    "ady_lo": 14,  "ady_hi": 17,  "target_day": 15, "note": "Early recovery checkpoint"},
        {"AVISITN": 3,  "AVISIT": "Cycle 2 Day 1",     "ady_lo": 18,  "ady_hi": 24,  "target_day": 22, "note": "Pre-cycle 2 safety gate — go/no-go for next cycle"},
        {"AVISITN": 4,  "AVISIT": "Cycle 2 Day 8",     "ady_lo": 25,  "ady_hi": 34,  "target_day": 29, "note": "Second cycle nadir"},
        {"AVISITN": 5,  "AVISIT": "Cycle 3 Day 1",     "ady_lo": 39,  "ady_hi": 45,  "target_day": 43, "note": "Pre-cycle 3 safety gate"},
        {"AVISITN": 99, "AVISIT": "Unscheduled",        "ady_lo": "all unmatched", "ady_hi": null, "target_day": null}
      ],
      "project_optimus_derived_params": {
        "note": "Derived in a second-pass data step using ADLB as input. Sponsor-defined; register in Define-XML.",
        "ANC_NADIR": {
          "PARAMCD": "ANCNADIR",
          "PARAM":   "ANC Nadir Value (×10³/μL)",
          "derivation": "MIN(AVAL) per USUBJID per cycle where PARAMCD='ANC' AND ANL01FL='Y' AND ADY > 0 AND ADY <= (cycle_start_day + 20)",
          "clinical_use": "Primary Optimus exposure-response Y-axis variable"
        },
        "ANC_RECOVERY_DAY": {
          "PARAMCD": "ANCRECDY",
          "PARAM":   "Days from ANC Nadir to Recovery (ANC ≥1.5×10³/μL)",
          "derivation": "For each cycle: ANCRECDY = first post-nadir ADY where AVAL >= 1.5 AND ATOXGR in ('',.) — subtract nadir day",
          "clinical_use": "Recovery latency — key for minimum cycle length optimization"
        },
        "PSA_DECLINE_50": {
          "PARAMCD": "PSAD50",
          "PARAM":   "PSA ≥50% Decline from Baseline",
          "derivation": "AVALC = Y if PCHG <= -50 AND confirmed by second measurement ≥4 weeks later with PCHG <= -50",
          "clinical_use": "Secondary efficacy — confirmed PSA response rate"
        }
      },
      "anl01fl_bug_fix": "Remove RETAIN for ANL01FL. Initialize to blank at start of each DATA step record. Use if first.avisitn then ANL01FL = 'Y'; else ANL01FL = 'N'; — no RETAIN needed or safe."
    },

    "ADRS": {
      "structure": "One record per subject per response parameter per visit (BDS)",
      "standard": "ADaMIG v1.3 BDS + admiralonco ADRS PCWG3 vignette",
      "sas_program": "A_adrs_generation.sas",
      "r_program": "v_adrs_validation.R",
      "r_functions": ["admiralonco::derive_param_response()","admiral::derive_extreme_event()","admiralonco::adrs_pcwg3"],
      "purpose": "Tumor response analysis — ORR, BOR, PSA response, PCWG3 composite for mCRPC.",
      "parameters": [
        {"PARAMCD": "OVRLRESP",  "PARAM": "Overall Response per RECIST 1.1 + PCWG3", "values": "CR/PR/SD/PD/NE"},
        {"PARAMCD": "BESTRESP",  "PARAM": "Best Overall Response (BOR)",              "derivation": "Best OVRLRESP excluding PD before first post-baseline assessment"},
        {"PARAMCD": "PSPROG",    "PARAM": "PSA Progression (PCWG3)",                  "derivation": "Y if PSA ≥25% rise above nadir AND ≥2 ng/mL, confirmed"},
        {"PARAMCD": "BSGRESP",   "PARAM": "Bone Scan Progression (PCWG3)",            "derivation": "First new lesion confirmed at ≥6 weeks"},
        {"PARAMCD": "OBJRESP",   "PARAM": "Objective Response (CR or PR)",            "derivation": "AVALC = Y where OVRLRESP IN ('CR','PR')"}
      ],
      "anl01fl_use": "ANL01FL flags post-baseline, on-treatment assessments used in primary response analysis. ANL02FL flags sensitivity analysis excluding assessments after new anti-cancer therapy."
    },

    "ADTTE": {
      "structure": "One record per subject per time-to-event parameter (BDS-TTE)",
      "standard": "ADaMIG v1.3 + CDISC BDS TTE v1.0",
      "sas_program": "A_adtte_generation.sas",
      "r_program": "v_adtte_validation.R",
      "r_functions": ["admiralonco::derive_param_tte()","admiral::event_source()","admiral::censor_source()"],
      "cnsr_convention": "CNSR = 0 (event), CNSR = 1 (censored) — ADaMIG v1.3 / admiral enforced convention",
      "parameters": [
        {
          "PARAMCD": "OS",
          "PARAM": "Overall Survival",
          "start_date": "RANDDT",
          "event": {"source": "ADSL", "filter": "DTHFL = 'Y'", "date_var": "DTHDT", "EVNTDESC": "DEATH"},
          "censor": {"source": "ADSL", "date_var": "LSTALVDT", "CNSDTDSC": "LAST KNOWN ALIVE DATE"},
          "test": "Log-rank (primary); Cox PH for HR + 95% CI",
          "sensitivity": ["RMST at τ=12 months using PROC LIFETEST RMST option / R survival::rmst2()", "Landmark analysis at 6 and 12 months"]
        },
        {
          "PARAMCD": "PFS",
          "PARAM": "Progression Free Survival",
          "start_date": "RANDDT",
          "event_sources": [
            {"source": "ADRS", "filter": "PARAMCD='OVRLRESP' AND AVALC='PD' AND ANL01FL='Y'", "EVNTDESC": "RADIOLOGICAL PROGRESSION"},
            {"source": "ADRS", "filter": "PARAMCD='PSPROG' AND AVALC='Y' AND ANL01FL='Y'",    "EVNTDESC": "PSA PROGRESSION"},
            {"source": "ADRS", "filter": "PARAMCD='BSGRESP' AND AVALC='Y'",                   "EVNTDESC": "BONE SCAN PROGRESSION"},
            {"source": "ADSL", "filter": "DTHFL='Y'",                                          "EVNTDESC": "DEATH"}
          ],
          "censoring_hierarchy": [
            "1. Last evaluable tumor assessment before PD if M2TAPD=Y (missing-to-progression)",
            "2. NACTDT - 1 day if new anti-cancer therapy started before confirmed PD (ADCM.NACTDT)",
            "3. Last radiological assessment date",
            "4. LSTALVDT if no tumor assessments at all"
          ],
          "sensitivity": "ANL02FL-based analysis excluding post-NACTDT assessments"
        },
        {
          "PARAMCD": "TTPSA",
          "PARAM": "Time to PSA Progression",
          "start_date": "RANDDT",
          "event": {"source": "ADRS", "filter": "PARAMCD='PSPROG' AND AVALC='Y'", "EVNTDESC": "PSA PROGRESSION"},
          "censor": {"CNSDTDSC": "LAST PSA ASSESSMENT DATE"}
        },
        {
          "PARAMCD": "TTPAIN",
          "PARAM": "Time to Pain Progression",
          "start_date": "RANDDT",
          "event_definition": "PPI ≥2 sustained increase from baseline OR analgesic score ≥10 sustained",
          "EVNTDESC": "PAIN PROGRESSION"
        },
        {
          "PARAMCD": "TTOS",
          "PARAM": "Time to First Serious Adverse Event",
          "start_date": "TRTSDT",
          "event": {"source": "ADAE", "filter": "TRTEMFL='Y' AND AESER='Y'", "date_var": "ASTDT"},
          "note": "Safety endpoint — feeds Optimus benefit-risk table"
        }
      ]
    }
  },

  "project_optimus_model": {
    "framework": "FDA Project Optimus final guidance (August 2024) — dose-response characterization for mCRPC re-analysis",
    "rationale": "TROPIC demonstrated 25 mg/m² cabazitaxel has 82% Grade ≥3 neutropenia. PROSELICA subsequently showed 20 mg/m² is non-inferior for OS with lower toxicity. This re-analysis uses TROPIC PDS data to retrospectively characterize the dose-ANC nadir relationship, validating the PROSELICA dose-reduction decision with individual patient-level evidence.",
    "datasets_required": ["ADEX (PARAMCD: RDI, CUMDOSE, NCYCLE)", "ADLB (PARAMCD: ANCNADIR, ANCRECDY)", "ADCM (GCSFFL, GCSFPRFL)", "ADSL (subgroup covariates)", "ADTTE (PARAMCD: OS, TTOS)"],
    "analysis_steps": [
      {
        "step": 1,
        "title": "Exposure Characterization",
        "description": "Summarize RDI distribution by treatment arm and cycle. Identify proportion of patients with RDI <85%, 65-85%, ≥85%. Plot RDI over time by arm.",
        "dataset": "ADEX",
        "tfl": "T-17-1 Relative Dose Intensity Summary by Arm and Cycle"
      },
      {
        "step": 2,
        "title": "ANC Nadir by Cycle — G-CSF Stratified",
        "description": "ANC nadir (×10³/μL) per cycle, stratified by G-CSF use (GCSFFL from ADCM). Present mean, median, SD, % Grade ≥3, % Grade 4. G-CSF users and non-users must be analyzed separately — G-CSF artificially elevates post-nadir counts.",
        "dataset": "ADLB JOIN ADCM",
        "tfl": "T-17-2 ANC Nadir by Cycle Stratified by G-CSF Use"
      },
      {
        "step": 3,
        "title": "Exposure-Response Scatter: RDI vs ANC Nadir",
        "description": "Scatter plot of individual patient RDI (%) on X-axis vs ANC nadir on Y-axis, by treatment cycle. Fit LOWESS smoothing curve. Stratify by G-CSF. This is the primary Optimus dose-response figure.",
        "dataset": "ADEX JOIN ADLB by USUBJID + cycle_number",
        "tfl": "F-17-1 Exposure-Response: RDI vs ANC Nadir (Project Optimus)",
        "statistical_model": "Linear regression: ANC_nadir ~ RDI + GCSFFL + AGE + ALBBL + cycle_number. Report beta coefficients + 95% CI.",
        "sas": "PROC REG + PROC SGPLOT with LOESS overlay",
        "r": "ggplot2::geom_smooth(method='loess') + lm() regression"
      },
      {
        "step": 4,
        "title": "Recovery Latency Analysis",
        "description": "ANC recovery latency (days from nadir to ANC ≥1.5×10³/μL) by cycle. Determine whether cycle delays (ADEX.NDELDOSE) correlate with prolonged recovery latency. Informs minimum cycle spacing.",
        "dataset": "ADLB (PARAMCD: ANCRECDY) JOIN ADEX (PARAMCD: NDELDOSE)",
        "tfl": "T-17-3 ANC Recovery Latency by Cycle and Dose Delay Status"
      },
      {
        "step": 5,
        "title": "Benefit-Risk Table — OS vs Grade ≥3 Toxicity by Dose Category",
        "description": "Categorize subjects by RDI tertile (RDIDL). For each tertile: median OS (from ADTTE), % Grade ≥3 AE (from ADAE), % febrile neutropenia. This is the core Optimus benefit-risk comparison table.",
        "dataset": "ADEX JOIN ADTTE JOIN ADAE JOIN ADSL",
        "tfl": "T-17-4 Benefit-Risk Summary by Relative Dose Intensity Tertile"
      }
    ]
  },

  "tfl_catalogue": {
    "note": "All TFL programs reference only ADaM datasets as input. No SDTM or raw data in TFL programs. ICH E3 section numbering used.",
    "safety_tables": [
      {"id": "T-14-1",  "title": "Summary of TEAEs by SOC and PT — Safety Population",                      "datasets": ["ADAE"],         "filter": "SAFFL=Y AND TRTEMFL=Y",                          "denominator": "AEOCCFL=Y"},
      {"id": "T-14-2",  "title": "Grade ≥3 TEAEs by SOC and PT — Safety Population",                        "datasets": ["ADAE"],         "filter": "SAFFL=Y AND TRTEMFL=Y AND ATOXGR>=3"},
      {"id": "T-14-3",  "title": "Serious TEAEs — Safety Population",                                        "datasets": ["ADAE"],         "filter": "SAFFL=Y AND TRTEMFL=Y AND AESER=Y"},
      {"id": "T-14-4",  "title": "TEAEs Leading to Dose Reduction or Discontinuation",                       "datasets": ["ADAE"],         "filter": "SAFFL=Y AND TRTEMFL=Y AND AEACN IN ('DRUG WITHDRAWN','DOSE REDUCED')"},
      {"id": "T-14-5",  "title": "Deaths Within 30 Days of Last Dose — Safety Population",                   "datasets": ["ADAE","ADSL"],  "filter": "AEDTH=Y"},
      {"id": "T-15-1",  "title": "G-CSF Use (Prophylactic and Therapeutic) by Arm and Cycle",               "datasets": ["ADCM"],         "filter": "SAFFL=Y AND GCSFFL=Y"}
    ],
    "laboratory_tables": [
      {"id": "T-16-1",  "title": "Hematology Laboratory Values Over Time — Safety Population",               "datasets": ["ADLB"],         "filter": "SAFFL=Y AND PARCAT1='HEMATOLOGY' AND ANL01FL=Y"},
      {"id": "T-16-2",  "title": "Worst CTCAE Grade for Hematology Parameters by Arm",                       "datasets": ["ADLB"],         "filter": "SAFFL=Y AND PARAMCD IN ('ANC','HGB','PLT','WBC')"},
      {"id": "T-16-3",  "title": "ANC Grade ≥3/4 Incidence by Cycle — Safety Population",                    "datasets": ["ADLB"],         "filter": "SAFFL=Y AND PARAMCD='ANC'"}
    ],
    "exposure_tables": [
      {"id": "T-13-1",  "title": "Exposure Summary: Duration, Cycles, Cumulative Dose by Arm",               "datasets": ["ADEX"],         "filter": "SAFFL=Y", "params": ["TRTDURD","NCYCLE","CUMDOSE"]},
      {"id": "T-13-2",  "title": "Dose Modifications: Reductions, Delays, Discontinuations by Arm",          "datasets": ["ADEX"],         "filter": "SAFFL=Y", "params": ["NREDDOSE","NDELDOSE"]},
      {"id": "T-13-3",  "title": "Relative Dose Intensity Summary by Arm",                                    "datasets": ["ADEX"],         "filter": "SAFFL=Y", "params": ["RDI","RDIDL"]}
    ],
    "efficacy_tables": [
      {"id": "T-11-1",  "title": "Overall Survival Summary (Median, 95% CI, Events/Total) — ITT",            "datasets": ["ADTTE"],        "filter": "ITTFL=Y AND PARAMCD='OS'"},
      {"id": "T-11-2",  "title": "Progression Free Survival Summary — ITT",                                  "datasets": ["ADTTE"],        "filter": "ITTFL=Y AND PARAMCD='PFS'"},
      {"id": "T-11-3",  "title": "PSA Response Rate (≥50% decline, confirmed) — ITT",                       "datasets": ["ADLB","ADSL"],  "filter": "ITTFL=Y AND PARAMCD='PSAD50'"},
      {"id": "T-11-4",  "title": "Objective Response Rate (RECIST 1.1, measurable disease subset) — ITT",   "datasets": ["ADRS","ADSL"],  "filter": "ITTFL=Y AND MEASDISFL=Y AND PARAMCD='OBJRESP'"},
      {"id": "T-12-1",  "title": "RMST Analysis for OS at τ=12 months — ITT (Sensitivity)",                 "datasets": ["ADTTE"],        "filter": "ITTFL=Y AND PARAMCD='OS'", "sas": "PROC LIFETEST RMST=(12)", "r": "survminer::surv_rmst2()"},
      {"id": "T-12-2",  "title": "Landmark Analysis: OS at 6 and 12 months — ITT (Sensitivity)",            "datasets": ["ADTTE"],        "filter": "ITTFL=Y AND PARAMCD='OS'"}
    ],
    "optimus_tables": [
      {"id": "T-17-1",  "title": "Relative Dose Intensity Distribution by Arm and Cycle",                    "datasets": ["ADEX"]},
      {"id": "T-17-2",  "title": "ANC Nadir by Cycle Stratified by G-CSF Use",                               "datasets": ["ADLB","ADCM"]},
      {"id": "T-17-3",  "title": "ANC Recovery Latency by Cycle and Dose Delay Status",                      "datasets": ["ADLB","ADEX"]},
      {"id": "T-17-4",  "title": "Benefit-Risk Table by RDI Tertile: OS vs Grade ≥3 Toxicity",              "datasets": ["ADEX","ADTTE","ADAE","ADSL"]}
    ],
    "figures": [
      {"id": "F-11-1",  "title": "KM Curve — OS by Arm (Primary Endpoint) — ITT",                           "datasets": ["ADTTE"],        "filter": "ITTFL=Y AND PARAMCD='OS'",  "stats": "Median+95%CI (Brookmeyer-Crowley), HR+95%CI (Cox), log-rank p", "sas": "PROC LIFETEST + PROC PHREG", "r": "survminer::ggsurvplot()"},
      {"id": "F-11-2",  "title": "KM Curve — PFS by Arm — ITT",                                             "datasets": ["ADTTE"],        "filter": "ITTFL=Y AND PARAMCD='PFS'"},
      {"id": "F-12-1",  "title": "Forest Plot — OS Subgroup Analysis (Pre-specified) — ITT",                "datasets": ["ADTTE","ADSL"], "filter": "ITTFL=Y AND PARAMCD='OS'",
                         "subgroups": ["ECOGBL (0-1 vs 2)","AGEGR1 (<65 vs ≥65)","MEASDISFL (Y vs N)","VISCFL (Y vs N)","PAINBL (Y vs N)","ALPBL (≤ULN vs >ULN)","DOCPROG (during vs after)"],
                         "note": "Descriptive only — no multiplicity adjustment. Display unstratified HR + 95% CI. Exclude subgroups with <10 subjects per arm.",
                         "sas": "PROC PHREG by subgroup + custom PROC SGPLOT forest macro",
                         "r": "forestplot::forestplot() or ggplot2 custom geom_point/errorbar"},
      {"id": "F-12-2",  "title": "Forest Plot — PFS Subgroup Analysis — ITT",                               "datasets": ["ADTTE","ADSL"], "filter": "ITTFL=Y AND PARAMCD='PFS'"},
      {"id": "F-17-1",  "title": "Exposure-Response Scatter: RDI vs ANC Nadir (Project Optimus)",           "datasets": ["ADEX","ADLB","ADCM"]}
    ]
  },

  "version_control_layer": {
    "tool": "Git (mandatory for 21 CFR Part 11 audit trail compliance)",
    "rationale": "21 CFR Part 11 requires historical record of code changes. Git provides automated, tamper-evident versioning superior to manual SAS date-stamp comments.",
    "repository_structure": {
      "root_files": [".gitignore","README.md","CHANGELOG.md","renv.lock"],
      "gitignore_rules": [
        "01_raw_source/  ← Never commit PDS patient data",
        "04_adam/*.xpt   ← Never commit XPT outputs",
        "06_telemetry/pipeline_health.json",
        ".Rprofile","*.log"
      ]
    },
    "commit_strategy": {
      "branch_model": "main (protected) + feature branches per dataset (feature/adex, feature/adcm, etc.)",
      "commit_convention": "[DATASET] [ACTION]: brief description — e.g. [ADAE] FIX: correct AEOCCFL logic for multi-sequence episodes",
      "required_per_commit": ["Program header updated (version, date, author)","QC checklist item checked off","No raw data files staged"]
    },
    "program_header_template": {
      "sas": "/* Program: {name}.sas | Version: {n} | Author: {name} | Date: {date} | Standard: ADaMIG v1.3 | Input: {datasets} | Output: {dataset} */",
      "r": "# Program: {name}.R | Version: {n} | Author: {name} | Date: {date} | Standard: ADaMIG v1.3 | renv.lock hash: {hash}"
    },
    "changelog_format": "Keep a CHANGELOG.md at repo root. Format: ## [version] - YYYY-MM-DD / ### Added|Fixed|Changed entries per dataset."
  },

  "r_pharmaverse_toolchain": {
    "package_versions": {
      "admiral":         ">=1.1.1  — core ADaM derivations",
      "admiralonco":     ">=1.3.0  — oncology-specific: ADRS PCWG3, ADTTE TTE sources",
      "metacore":        ">=0.2.0  — metadata specification object (CRAN Aug 2025 release)",
      "metatools":       ">=0.2.0  — spec-driven column ordering, CT checks, variable labels",
      "xportr":          ">=0.4.0  — CDISC-compliant XPT export with eSub checks",
      "logrx":           ">=0.3.0  — R script execution logging for audit trail",
      "sdtm.oak":        ">=0.1.0  — SDTM dataset creation from raw PDS data",
      "haven":           ">=2.5.0  — SAS7BDAT and XPT read/write",
      "dplyr":           ">=1.1.0",
      "lubridate":       ">=1.9.0",
      "fuzzyjoin":       ">=0.1.6  — analysis windowing fuzzy joins",
      "diffdf":          ">=1.0.6  — cell-by-cell cross-language reconciliation",
      "survival":        ">=3.5.0  — KM, Cox PH, RMST",
      "survminer":       ">=0.4.9  — KM plot visualization",
      "ggplot2":         ">=3.4.0  — forest plots, Optimus scatter plots",
      "gt":              ">=0.9.0  — publication-quality TFL tables from R"
    },
    "workflow_sequence": [
      "1. haven::read_sas() — import PDS raw data",
      "2. metacore::metacore() — load spec object from Excel/CSV spec sheet",
      "3. metatools::build_from_derived() — apply metadata-driven derivations",
      "4. admiral::* — core ADaM derivation functions",
      "5. admiralonco::* — oncology-specific derivations (ADRS PCWG3, ADTTE)",
      "6. metatools::order_cols() + set_variable_labels() + check_ct_data() — spec conformance",
      "7. xportr::xportr_metadata() + xportr::xportr_write() — write CDISC-compliant XPT",
      "8. logrx::log_config() + logrx::log_run() — capture full execution log for audit trail"
    ],
    "renv_management": {
      "lockfile": "renv.lock — committed to Git. Pins all package versions.",
      "activation": "renv::activate() MUST be the first call in every R program before any library() call",
      "restore_command": "renv::restore() — restores exact locked environment on any new machine"
    }
  },

  "pipeline_execution_sequence": {
    "stage_0": {
      "name": "Environment Verification",
      "steps": [
        "git clone <repo> && git checkout main",
        "Rscript -e 'renv::restore()' — restore locked R environment",
        "sas -version — verify SAS 9.4 M7+",
        "p21 --version — verify Pinnacle 21 Community CLI",
        "python3 06_telemetry/cibuild.py --dry-run — validate environment without executing programs"
      ]
    },
    "stage_1": {"name": "Raw PDS Ingest + Type Coercion",  "sas": "L_staging_ingest.sas",    "r": "v_staging_ingest.R",    "inputs": ["01_raw_source/*"],                                        "outputs": ["staging.*_normalized datasets"]},
    "stage_2": {"name": "SDTM Domain Construction",         "sas": "S_sdtm_mapping.sas",       "r": "v_sdtm_validation.R",   "inputs": ["staging.*"],                                              "outputs": ["sdtm.dm/ae/lb/ex/cm/ds/vs/rs/tr"]},
    "stage_3": {"name": "ADSL",                             "sas": "A_adsl_generation.sas",    "r": "v_adsl_validation.R",   "inputs": ["sdtm.dm/ex/ds/lb/vs"],                                    "outputs": ["adam.adsl_prod.xpt","adam.adsl_val.xpt"]},
    "stage_4": {"name": "ADEX + ADEXSUM",                   "sas": "A_adex_generation.sas",    "r": "v_adex_validation.R",   "inputs": ["sdtm.ex","sdtm.vs (for BSA)","adam.adsl"],                "outputs": ["adam.adex_prod.xpt","adam.adex_val.xpt"]},
    "stage_5": {"name": "ADCM",                             "sas": "A_adcm_generation.sas",    "r": "v_adcm_validation.R",   "inputs": ["sdtm.cm","adam.adsl"],                                    "outputs": ["adam.adcm_prod.xpt","adam.adcm_val.xpt"]},
    "stage_6": {"name": "ADAE",                             "sas": "A_adae_io_respec.sas",     "r": "v_adae_io_validation.R","inputs": ["sdtm.ae","adam.adsl"],                                    "outputs": ["adam.adae_prod.xpt","adam.adae_val.xpt"]},
    "stage_7": {"name": "ADLB + Optimus Kinetics",          "sas": "A_adlb_generation.sas",    "r": "v_adlb_validation.R",   "inputs": ["sdtm.lb","adam.adsl","adam.adcm (for GCSFFL)"],           "outputs": ["adam.adlb_prod.xpt","adam.adlb_val.xpt"]},
    "stage_8": {"name": "ADRS (RECIST 1.1 + PCWG3)",        "sas": "A_adrs_generation.sas",    "r": "v_adrs_validation.R",   "inputs": ["sdtm.rs","sdtm.tr","adam.adsl"],                          "outputs": ["adam.adrs_prod.xpt","adam.adrs_val.xpt"]},
    "stage_9": {"name": "ADTTE (OS/PFS/TTPSA/TTPAIN)",     "sas": "A_adtte_generation.sas",   "r": "v_adtte_validation.R",  "inputs": ["adam.adsl","adam.adrs","adam.adlb","adam.adcm (NACTDT)"], "outputs": ["adam.adtte_prod.xpt","adam.adtte_val.xpt"]},
    "stage_10": {
      "name": "XPT Export with Constraint Audit",
      "sas": "U_xpt_export.sas",
      "checks": ["Variable name ≤8 chars","Label ≤40 chars","Dataset label ≤40 chars","Export via PROC COPY not PROC EXPORT"],
      "outputs": ["04_adam/*.xpt — all production datasets"]
    },
    "stage_11": {
      "name": "Pinnacle 21 Validation Gate",
      "command": "p21 validate --data 04_adam/ --define 07_define_xml/define.xml --engine FDA --report 06_telemetry/p21_report.json",
      "halt_condition": "Any P21 ERROR-level finding halts pipeline. All warnings require SDRG documentation.",
      "common_preemptive_checks": [
        "AD0018: Required variable present in all BDS datasets (STUDYID, USUBJID, PARAMCD, PARAM, AVAL, ADT)",
        "AD0063: CNSR = 0 (event) or positive integer (censor) in ADTTE",
        "AD0082: ANL01FL single character Y/N no missing",
        "AD0040: DTYPE values in controlled terminology",
        "AD0055: AEOCCFL = Y/N in ADAE — no missing values"
      ]
    },
    "stage_12": {
      "name": "R Independent Validation Track",
      "programs": ["v_adsl_validation.R","v_adex_validation.R","v_adcm_validation.R","v_adae_io_validation.R","v_adlb_validation.R","v_adrs_validation.R","v_adtte_validation.R"],
      "logging": "logrx::log_run() wraps each program — captures session info, package versions, execution time, warnings"
    },
    "stage_13": {
      "name": "Cross-Language Reconciliation Gate",
      "program": "cross_lang_audit.R",
      "method": "diffdf::diffdf(prod_xpt, val_xpt) for every dataset pair",
      "acceptance": "Zero cell differences. Any discrepancy requires root-cause analysis before proceeding.",
      "output": "06_telemetry/reconciliation_report.html"
    },
    "stage_14": {
      "name": "Define-XML v2.1 Generation",
      "tools": ["metacore + metatools (R) — preferred for programmatic generation from spec sheets", "Pinnacle 21 Enterprise — GUI option", "OpenStudyBuilder"],
      "required_content": [
        "All datasets: name, label, class, structure, purpose",
        "All variables: name, label, type, length, origin, codelist reference",
        "Sponsor-defined vars (CIAESEQ/CIAESDT/CIAEEDT/CIAEDUR/GCSFFL/NACTDT/ANCNADIR/ANCRECDY/RDI): full derivation algorithm in Comments field",
        "Value-level metadata: PARAMCD/PARAM decode tables for all BDS datasets",
        "ADTTE: EVNTDESC and CNSDTDSC value-level metadata mandatory",
        "Controlled terminology references: CDISC CT version, NCI thesaurus version"
      ],
      "output": "07_define_xml/define.xml + define.xsl"
    },
    "stage_15": {
      "name": "TFL Generation",
      "sas_programs": ["T_11_1_os_summary.sas","T_11_2_pfs_summary.sas","T_11_3_psa_response.sas","T_11_4_orr.sas","T_12_1_os_rmst.sas","T_12_2_landmark.sas","T_13_1_exposure_summary.sas","T_13_2_dose_mods.sas","T_14_1_teae.sas","T_14_2_grade3ae.sas","T_14_3_saes.sas","T_14_4_disc_ae.sas","T_15_1_gcsf.sas","T_16_1_hematology.sas","T_17_1_rdi.sas","T_17_2_anc_nadir_gcsf.sas","T_17_3_recovery_latency.sas","T_17_4_benefit_risk.sas","F_11_1_os_km.sas","F_11_2_pfs_km.sas","F_12_1_os_forest.sas","F_12_2_pfs_forest.sas","F_17_1_optimus_scatter.sas"],
      "r_programs": ["F_11_1_os_km.R","F_12_1_os_forest.R","F_17_1_optimus_scatter.R"],
      "rule": "All TFL programs accept only ADaM XPT files as input. No SDTM, no raw data."
    },
    "stage_16": {
      "name": "ADRG + SDRG Completion — MANDATORY HUMAN SIGN-OFF",
      "adrg_sections": [
        "Study description and data cutoff (2010-03-10)",
        "Data source: Project Data Sphere — authorization statement",
        "Population definitions: ITT/Safety/PP with variable derivations",
        "Dataset descriptions: all 7 ADaM datasets and data flow diagram",
        "Special derivations: irAE/hematologic episode merging (CIAESEQ gap rule), PCWG3 response algorithm, Optimus kinetic parameters",
        "Sponsor-defined non-standard variables: full derivation narrative for each",
        "Multiplicity control: hierarchical gatekeeping procedure specification",
        "Sensitivity analyses: RMST τ=12 months, landmark at 6/12 months, ANL02FL-based PFS",
        "Subgroup analyses: pre-specified list, exploratory-only caveat",
        "Pinnacle 21 validation findings and sponsor justifications",
        "Methodological caveats: CTCAE v3.0 vs v5.0; PCWG3 retrospective application; PDS comparator arm scope"
      ],
      "sdrg_sections": [
        "Protocol summary and data cutoff",
        "SDTM dataset descriptions",
        "Non-standard domain justifications",
        "Data cleaning and normalization procedures (sentinel missing values, type coercion)",
        "Deviations from SDTM-IG 3.4"
      ]
    }
  },

  "automation_orchestration": {
    "master_script": "06_telemetry/cibuild.py",
    "execution_modes": {
      "normal":    "python3 cibuild.py                    — full pipeline execution",
      "dry_run":   "python3 cibuild.py --dry-run          — validate environment, check paths, verify tools; NO program execution",
      "from_stage":"python3 cibuild.py --from-stage 7     — restart from ADLB stage (after resolving upstream failure)",
      "rollback":  "python3 cibuild.py --rollback         — revert 04_adam/ XPTs to last Git-tagged clean state via git checkout",
      "single":    "python3 cibuild.py --stage adex       — run single dataset stage only"
    },
    "pipeline_halt_conditions": [
      "Any SAS program exits non-zero",
      "Pinnacle 21 reports ≥1 ERROR-level finding",
      "diffdf detects ≥1 cell difference in any dataset pair",
      "XPT constraint audit finds variable name or label violations",
      "renv::restore() fails — environment not reproducible"
    ],
    "log_patterns": {
      "sas": ["WARNING:","ERROR:","NOTE: Missing values were generated","NOTE: Variable .+ is uninitialized","NOTE: MERGE statement has more than one","NOTE: A CASE expression has no ELSE clause","NOTE: Invalid numeric data"],
      "r":   ["Warning message:","Error:","NAs introduced by coercion","longer object length","package .+ was built under R version"]
    },
    "outputs": [
      "06_telemetry/pipeline_health.json — machine-readable build report with dataset-level status",
      "06_telemetry/health_dashboard.md  — human-readable checklist with mandatory sign-off items",
      "06_telemetry/p21_report.json      — Pinnacle 21 validation report",
      "06_telemetry/reconciliation_report.html — diffdf cross-language audit per dataset",
      "06_telemetry/logrx_*.log          — R execution logs per validation program"
    ],
    "pre_submission_checklist": [
      "[ ] All 7 ADaM datasets pass Pinnacle 21 with zero errors",
      "[ ] All P21 warnings documented in SDRG with justification",
      "[ ] All diffdf reports show zero differences",
      "[ ] ADRG completed and reviewed by statistician",
      "[ ] SDRG completed and reviewed by data manager",
      "[ ] Define-XML v2.1 validated against datasets",
      "[ ] All sponsor-defined variables registered in Define-XML",
      "[ ] Git tag applied: v1.0-submission-ready",
      "[ ] renv.lock committed and tested on clean machine",
      "[ ] No raw PDS data committed to Git repository",
      "[ ] CHANGELOG.md updated with final version entry"
    ]
  },

  "directory_structure": {
    "layout": {
      "01_raw_source/":          "READ-ONLY. Raw PDS downloads. Never committed to Git.",
      "02_production_sas/":      "SAS production programs: L_staging_ingest, S_sdtm_mapping, A_adsl/adex/adcm/adae/adlb/adrs/adtte, U_xpt_export, 00_master_driver",
      "03_validation_r/":        "R validation programs: activate_renv.R, v_*.R per dataset",
      "04_adam/":                "XPT outputs: *_prod.xpt (SAS) and *_val.xpt (R). Not committed to Git.",
      "05_reconciliation/":      "cross_lang_audit.R — diffdf comparison engine",
      "06_telemetry/":           "cibuild.py, pipeline_health.json, health_dashboard.md, p21_report.json, logrx logs",
      "07_define_xml/":          "define.xml, define.xsl, ct_map.csv, spec_sheets/",
      "08_reviewers_guides/":    "ADRG.docx, SDRG.docx — completed before submission",
      "09_tfl/":                 "TFL programs and outputs: t_*.sas, f_*.sas, f_*.R, output/",
      "10_specs/":               "Dataset specs, variable metadata, SAP reference"
    }
  },

  "portfolio_metadata": {
    "data_authorization": "Patient-level data accessed via Project Data Sphere. Sanofi US contributed TROPIC data. Access governed by PDS Terms of Use. De-identified per HIPAA Privacy Rule. No IRB required.",
    "methodological_caveats_for_adrg": [
      "TROPIC used CTCAE v3.0. All CTCAE gradings reflect v3.0 thresholds, not current v5.0.",
      "PCWG3 response criteria applied retrospectively. TROPIC contemporaneously used PCWG2-era rules (2010). PCWG3 re-analysis is methodologically valid but framed as exploratory.",
      "PDS primarily provides comparator arm data. Cabazitaxel arm availability depends on Sanofi's specific PDS contribution scope — verify on platform before assuming full treatment arm access.",
      "Project Optimus retrospective analysis: TROPIC was not designed for dose-optimization. Findings are hypothesis-generating, consistent with PROSELICA dose-reduction rationale."
    ],
    "competencies_demonstrated": [
      "End-to-end CDISC pipeline: SDTM → ADaM (7 datasets) → TFL (23 outputs)",
      "Dual-language SAS + R Pharmaverse independent validation architecture",
      "Complete ADaMIG v1.3 compliance including OCCDS v1.1 denominator flag logic",
      "ADEX/ADEXSUM — exposure analysis including BSA normalization and RDI",
      "ADCM — confounder identification and NACTDT derivation for PFS censoring",
      "Project Optimus exposure-response modeling with G-CSF stratification",
      "PCWG3 response criteria for mCRPC (RECIST 1.1 + bone scan composite)",
      "Hierarchical multiplicity control (ICH E9 step-down gatekeeping)",
      "RMST sensitivity analysis and landmark analyses",
      "Pre-specified subgroup forest plots (OS + PFS)",
      "Define-XML v2.1 via metacore/metatools programmatic generation",
      "Pinnacle 21 validation gate integrated in CI/CD pipeline",
      "Git version control for 21 CFR Part 11 audit trail",
      "cibuild.py with dry-run, stage-restart, and rollback modes",
      "logrx R execution logging for regulatory audit trail",
      "Working with real authorized patient-level oncology trial data"
    ]
  }
}
