{
  "schema_version": "1.1",
  "record_id": "TROPIC-P21-ADAM-2026-08-23-06",
  "status": "EXECUTED_WITH_OPEN_FINDINGS_AND_COMPATIBILITY_CAVEAT",
  "use": "INFORMATIVE_ONLY",
  "licensed_enterprise_execution": false,
  "application": {
    "name": "Pinnacle 21 Community",
    "version": "4.1.0",
    "build": "4.1.0.4652",
    "client": "p21-client-1.0.8.jar",
    "client_sha256": "1d6cb1c03c16bb7dec2c2e04933fc1dcd01bcad8781c456000434cee0173e8b7",
    "distribution": "Apple-notarized Developer ID Application: Pinnacle 21 LLC (56C9Z22DN3)"
  },
  "validation": {
    "generated_at": "2026-08-23T23:19:06+05:30",
    "engine": "FDA 2508.1",
    "standard": "ADaM-IG 1.3 (FDA)",
    "define_standard": "Define-XML 2.1",
    "adam_ct": "2024-03-29",
    "sdtm_ct": "2024-03-29",
    "configuration_sha256": "7076c498f841346dac1fe48afb6ef480ce22e8a42a02aeb07453f751a8b9f014",
    "define_sha256": "74256966d9247f117ffba4a52712733bd42abc11f5aca5061aa73e210e7db204",
    "raw_report_filename": "pinnacle21-report-2026-08-23-professional-build.xlsx",
    "raw_report_sha256": "05cf6f82c46ba958fdd659f9f60f41fa5e9fd2bf7f59eba443b83fd428d89cb5",
    "raw_report_committed": false,
    "raw_report_withheld_reason": "Vendor-licensed runtime workbook with embedded local execution paths and 1,685 record-level issue-detail rows; retained outside Git under the controlled-artifact policy and restricted locally to owner-only mode 0600.",
    "compatibility_caveat": "Incompatible CLI used",
    "process_completed": true,
    "shell_exit_code": 5,
    "input_filename_contract": "Byte-identical *_prod.xpt artifacts staged under standard submission filenames without the engineering suffix",
    "input_content_transformations": 0,
    "aggregate_reconciliation": "Independent workbook XML and openpyxl reads agreed; workbook ZIP integrity passed",
    "detail_rows": 1685,
    "record_cells_populated": 1624
  },
  "totals": {
    "datasets_processed": 7,
    "datasets_rejected": 0,
    "records": 121320,
    "rule_catalog_entries": 388,
    "issue_groups": 30,
    "issue_occurrences": 2373
  },
  "remediation_comparison": {
    "initial_issue_groups": 37,
    "initial_issue_occurrences": 86611,
    "final_issue_groups": 30,
    "final_issue_occurrences": 2373,
    "occurrences_eliminated": 84238,
    "percent_reduction": 97.3,
    "eliminated_finding_family": "One-sided ADaM flags represented as N instead of null"
  },
  "residual_families": [
    {"family": "adam_only_traceability_context", "occurrences": 3, "disposition": "expected_scoped_run_limitation"},
    {"family": "source_timing", "occurrences": 1604, "disposition": "requires_approved_source_or_derivation_decision"},
    {"family": "controlled_terminology", "occurrences": 124, "disposition": "requires_governed_mapping"},
    {"family": "paired_numeric_character_representation", "occurrences": 587, "disposition": "requires_parameter_level_model_review"},
    {"family": "standard_labels_types_required_variables", "occurrences": 36, "disposition": "open_standards_backlog"},
    {"family": "define_physical_type_messages", "occurrences": 19, "disposition": "requires_qualified_standards_review"}
  ],
  "datasets": [
    {"dataset": "ADAE", "validator_filename": "adae.xpt", "records": 5428, "sha256": "dd3bf9eeb204a7d54e63e2f4c0545e353ee943774be1620071bfe5ded9b33a67"},
    {"dataset": "ADCM", "validator_filename": "adcm.xpt", "records": 24534, "sha256": "506f7eee97c9fd52df10c9b254b976f0759c32932a54cfb53a783c07b731bbdb"},
    {"dataset": "ADEX", "validator_filename": "adex.xpt", "records": 7820, "sha256": "6b6c974ba4fb85c543806fa47502f3f4b0c4d0a4bb88580cbc1f86f1a96889eb"},
    {"dataset": "ADLB", "validator_filename": "adlb.xpt", "records": 78619, "sha256": "92f2404520923f89f9e680b66f76b078af77098500d6856f00ba9b754d698c02"},
    {"dataset": "ADRS", "validator_filename": "adrs.xpt", "records": 2322, "sha256": "2a6d97e8add31ffc69b9adebab08a9d69cebb38957cf2488281da495b69a21e1"},
    {"dataset": "ADSL", "validator_filename": "adsl.xpt", "records": 371, "sha256": "9a2d00b02e00c0be0f1785df4797a1bc988371f400e9c6114cb0e3e7811ab2d9"},
    {"dataset": "ADTTE", "validator_filename": "adtte.xpt", "records": 2226, "sha256": "665dd7eeca6854633124764f82f3e8a0f4b880169f92c02a7d19a1bbd0bb53ff"}
  ],
  "issues": [
    {"domain": "GLOBAL", "id": "AD1024", "found": 1, "message": "Traceability rules not executed due to missing DM dataset"},
    {"domain": "GLOBAL", "id": "AD1025", "found": 1, "message": "Traceability rules not executed due to missing AE dataset"},
    {"domain": "GLOBAL", "id": "AD1026", "found": 1, "message": "Traceability rules not executed due to missing EX dataset"},
    {"domain": "ADAE", "id": "AD0018", "found": 6, "message": "Variable label mismatch between dataset and ADaM standard"},
    {"domain": "ADAE", "id": "AD0047", "found": 12, "message": "Required variable is not present"},
    {"domain": "ADAE", "id": "AD0099", "found": 6, "message": "ASTDY is greater than AENDY"},
    {"domain": "ADAE", "id": "AD0200", "found": 1, "message": "ADaM/dataset variable type mismatch"},
    {"domain": "ADAE", "id": "AD0361", "found": 6, "message": "Value of ASTDT is greater than value of AENDT"},
    {"domain": "ADAE", "id": "CT2001", "found": 124, "message": "AEACN value not found in 'Action Taken with Study Treatment' non-extensible codelist"},
    {"domain": "ADAE", "id": "SD0059", "found": 4, "message": "Define.xml/dataset variable type mismatch"},
    {"domain": "ADCM", "id": "AD0018", "found": 2, "message": "Variable label mismatch between dataset and ADaM standard"},
    {"domain": "ADCM", "id": "AD0046", "found": 24, "message": "ASTDY = 0"},
    {"domain": "ADCM", "id": "SD0059", "found": 3, "message": "Define.xml/dataset variable type mismatch"},
    {"domain": "ADEX", "id": "AD0150", "found": 360, "message": "Inconsistent value for AVAL"},
    {"domain": "ADEX", "id": "SD0059", "found": 1, "message": "Define.xml/dataset variable type mismatch"},
    {"domain": "ADLB", "id": "AD0018", "found": 2, "message": "Variable label mismatch between dataset and ADaM standard"},
    {"domain": "ADLB", "id": "AD0046", "found": 1567, "message": "LBDY = 0"},
    {"domain": "ADLB", "id": "AD0150", "found": 222, "message": "Inconsistent value for AVAL"},
    {"domain": "ADLB", "id": "AD0200", "found": 2, "message": "ADaM/dataset variable type mismatch"},
    {"domain": "ADLB", "id": "SD0059", "found": 2, "message": "Define.xml/dataset variable type mismatch"},
    {"domain": "ADRS", "id": "AD0018", "found": 2, "message": "Variable label mismatch between dataset and ADaM standard"},
    {"domain": "ADRS", "id": "AD0046", "found": 1, "message": "ADY = 0"},
    {"domain": "ADRS", "id": "AD0149B", "found": 5, "message": "Inconsistent value for AVALC"},
    {"domain": "ADRS", "id": "SD0059", "found": 2, "message": "Define.xml/dataset variable type mismatch"},
    {"domain": "ADSL", "id": "AD0018", "found": 3, "message": "Variable label mismatch between dataset and ADaM standard"},
    {"domain": "ADSL", "id": "AD0047", "found": 2, "message": "Required variable is not present"},
    {"domain": "ADSL", "id": "AD0320", "found": 1, "message": "Non-standard dataset label"},
    {"domain": "ADSL", "id": "SD0059", "found": 5, "message": "Define.xml/dataset variable type mismatch"},
    {"domain": "ADTTE", "id": "AD0018", "found": 3, "message": "Variable label mismatch between dataset and ADaM standard"},
    {"domain": "ADTTE", "id": "SD0059", "found": 2, "message": "Define.xml/dataset variable type mismatch"}
  ],
  "pipeline_binding": {
    "health_timestamp": "2026-08-23T17:47:35.766117+00:00",
    "pipeline_health_status": "GREEN",
    "sas_execution_mode": "oda",
    "run_scope": "full_dag",
    "stages_expected": 41,
    "stages_recorded": 41,
    "source_tree_sha256": "6b2e272130b0936f4f2156bf8f4352f4c3428a9c01eb772e29614c14ce970e91"
  },
  "qualification": {
    "community_informative_only": true,
    "enterprise_executed": false,
    "submission_clearance_claimed": false,
    "independent_qc_approved": false
  },
  "exact_byte_rerun": {
    "health_timestamp": "2026-08-23T17:47:35.766117+00:00",
    "completed": true,
    "datasets_validated": 7,
    "input_hashes_match_current_production_xpts": true,
    "standard_filenames_used": true,
    "content_transformations": 0,
    "process_completed": true,
    "report_sha256": "05cf6f82c46ba958fdd659f9f60f41fa5e9fd2bf7f59eba443b83fd428d89cb5"
  }
}
