<?xml version='1.0' encoding='UTF-8'?>
<?xml-stylesheet type="text/xsl" href="define2-1.xsl"?><ODM xmlns="http://www.cdisc.org/ns/odm/v1.3" xmlns:def="http://www.cdisc.org/ns/def/v2.1" xmlns:xlink="http://www.w3.org/1999/xlink" xmlns:xsi="http://www.w3.org/2001/XMLSchema-instance" xmlns:arm="http://www.cdisc.org/ns/arm/v1.0" xsi:schemaLocation="http://www.cdisc.org/ns/odm/v1.3 http://schema.cdisc.org/define/v2.1/define2-1-0.xsd" ODMVersion="1.3.2" FileType="Snapshot" FileOID="TROPIC_ADAM_Metadata_v2.1" CreationDateTime="2026-06-12T21:52:12" AsOfDateTime="2026-08-12T13:17:02" Originator="Antony Bevan, Clinical Programming" def:Context="Other"><Study OID="STDY.TROPIC">
    <GlobalVariables>
      <StudyName>TROPIC (EFC6193 / XRP6258)</StudyName>
      <StudyDescription>Cabazitaxel vs Mitoxantrone in mCRPC progressing after docetaxel (NCT00417079).</StudyDescription>
      <ProtocolName>EFC6193</ProtocolName>
    </GlobalVariables>
  <MetaDataVersion OID="MDV.TROPIC_NCT00417079.ADAM.1.3" Name="TROPIC Trial ADaM Metadata Specification" Description="Metadata specification for TROPIC Phase III re-analysis ADaM datasets" def:DefineVersion="2.1.0">
    <def:Standards>
      <def:Standard OID="STD.ADaMIG.1.3" Name="ADaMIG" Type="IG" Version="1.3" Status="Final"/>
      <def:Standard OID="STD.ADaMCT.2026-03-27" Name="CDISC/NCI" Type="CT" PublishingSet="ADaM" Version="2026-03-27" Status="Final"/>
    </def:Standards>
    <def:ValueListDef OID="VL.ADLB.AVAL">
      <ItemRef ItemOID="IT.ADLB.AVAL.NEUT" Mandatory="No" MethodOID="MT.ADLB_AVAL">
        <def:WhereClauseRef WhereClauseOID="WC.ADLB.PARAMCD.EQ.NEUT"/>
      </ItemRef>
      <ItemRef ItemOID="IT.ADLB.AVAL.ANCNADIR" Mandatory="No" MethodOID="MT.ANCNADIR">
        <def:WhereClauseRef WhereClauseOID="WC.ADLB.PARAMCD.EQ.ANCNADIR"/>
      </ItemRef>
      <ItemRef ItemOID="IT.ADLB.AVAL.PSA" Mandatory="No" MethodOID="MT.ADLB_AVAL">
        <def:WhereClauseRef WhereClauseOID="WC.ADLB.PARAMCD.EQ.PSA"/>
      </ItemRef>
    </def:ValueListDef>
    <def:ValueListDef OID="VL.ADEX.AVAL">
      <ItemRef ItemOID="IT.ADEX.AVAL.RDI" Mandatory="No" MethodOID="MT.RDI">
        <def:WhereClauseRef WhereClauseOID="WC.ADEX.PARAMCD.EQ.RDI"/>
      </ItemRef>
      <ItemRef ItemOID="IT.ADEX.AVAL.NCYCLE" Mandatory="No" MethodOID="MT.NCYCLE">
        <def:WhereClauseRef WhereClauseOID="WC.ADEX.PARAMCD.EQ.NCYCLE"/>
      </ItemRef>
    </def:ValueListDef>
    <def:ValueListDef OID="VL.ADTTE.AVAL">
      <ItemRef ItemOID="IT.ADTTE.AVAL.OS" Mandatory="No" MethodOID="MT.AVAL_TTE">
        <def:WhereClauseRef WhereClauseOID="WC.ADTTE.PARAMCD.EQ.OS"/>
      </ItemRef>
      <ItemRef ItemOID="IT.ADTTE.AVAL.PFS" Mandatory="No" MethodOID="MT.AVAL_TTE">
        <def:WhereClauseRef WhereClauseOID="WC.ADTTE.PARAMCD.EQ.PFS"/>
      </ItemRef>
      <ItemRef ItemOID="IT.ADTTE.AVAL.TTPSA" Mandatory="No" MethodOID="MT.AVAL_TTE">
        <def:WhereClauseRef WhereClauseOID="WC.ADTTE.PARAMCD.EQ.TTPSA"/>
      </ItemRef>
      <ItemRef ItemOID="IT.ADTTE.AVAL.TTUMOR" Mandatory="No" MethodOID="MT.AVAL_TTE">
        <def:WhereClauseRef WhereClauseOID="WC.ADTTE.PARAMCD.EQ.TTUMOR"/>
      </ItemRef>
      <ItemRef ItemOID="IT.ADTTE.AVAL.TTPAIN" Mandatory="No" MethodOID="MT.AVAL_TTE">
        <def:WhereClauseRef WhereClauseOID="WC.ADTTE.PARAMCD.EQ.TTPAIN"/>
      </ItemRef>
      <ItemRef ItemOID="IT.ADTTE.AVAL.TTSAE" Mandatory="No" MethodOID="MT.AVAL_TTE">
        <def:WhereClauseRef WhereClauseOID="WC.ADTTE.PARAMCD.EQ.TTSAE"/>
      </ItemRef>
    </def:ValueListDef>
    <def:WhereClauseDef OID="WC.ADLB.PARAMCD.EQ.NEUT">
      <RangeCheck Comparator="EQ" def:ItemOID="IT.ADLB.PARAMCD" SoftHard="Soft">
        <CheckValue>NEUT</CheckValue>
      </RangeCheck>
    </def:WhereClauseDef>
    <def:WhereClauseDef OID="WC.ADLB.PARAMCD.EQ.ANCNADIR">
      <RangeCheck Comparator="EQ" def:ItemOID="IT.ADLB.PARAMCD" SoftHard="Soft">
        <CheckValue>ANCNADIR</CheckValue>
      </RangeCheck>
    </def:WhereClauseDef>
    <def:WhereClauseDef OID="WC.ADLB.PARAMCD.EQ.PSA">
      <RangeCheck Comparator="EQ" def:ItemOID="IT.ADLB.PARAMCD" SoftHard="Soft">
        <CheckValue>PSA</CheckValue>
      </RangeCheck>
    </def:WhereClauseDef>
    <def:WhereClauseDef OID="WC.ADEX.PARAMCD.EQ.RDI">
      <RangeCheck Comparator="EQ" def:ItemOID="IT.ADEX.PARAMCD" SoftHard="Soft">
        <CheckValue>RDI</CheckValue>
      </RangeCheck>
    </def:WhereClauseDef>
    <def:WhereClauseDef OID="WC.ADEX.PARAMCD.EQ.NCYCLE">
      <RangeCheck Comparator="EQ" def:ItemOID="IT.ADEX.PARAMCD" SoftHard="Soft">
        <CheckValue>NCYCLE</CheckValue>
      </RangeCheck>
    </def:WhereClauseDef>
    <def:WhereClauseDef OID="WC.ADTTE.PARAMCD.EQ.OS">
      <RangeCheck Comparator="EQ" def:ItemOID="IT.ADTTE.PARAMCD" SoftHard="Soft">
        <CheckValue>OS</CheckValue>
      </RangeCheck>
    </def:WhereClauseDef>
    <def:WhereClauseDef OID="WC.ADTTE.PARAMCD.EQ.PFS">
      <RangeCheck Comparator="EQ" def:ItemOID="IT.ADTTE.PARAMCD" SoftHard="Soft">
        <CheckValue>PFS</CheckValue>
      </RangeCheck>
    </def:WhereClauseDef>
    <def:WhereClauseDef OID="WC.ADTTE.PARAMCD.EQ.TTPSA">
      <RangeCheck Comparator="EQ" def:ItemOID="IT.ADTTE.PARAMCD" SoftHard="Soft">
        <CheckValue>TTPSA</CheckValue>
      </RangeCheck>
    </def:WhereClauseDef>
    <def:WhereClauseDef OID="WC.ADTTE.PARAMCD.EQ.TTUMOR">
      <RangeCheck Comparator="EQ" def:ItemOID="IT.ADTTE.PARAMCD" SoftHard="Soft">
        <CheckValue>TTUMOR</CheckValue>
      </RangeCheck>
    </def:WhereClauseDef>
    <def:WhereClauseDef OID="WC.ADTTE.PARAMCD.EQ.TTPAIN">
      <RangeCheck Comparator="EQ" def:ItemOID="IT.ADTTE.PARAMCD" SoftHard="Soft">
        <CheckValue>TTPAIN</CheckValue>
      </RangeCheck>
    </def:WhereClauseDef>
    <def:WhereClauseDef OID="WC.ADTTE.PARAMCD.EQ.TTSAE">
      <RangeCheck Comparator="EQ" def:ItemOID="IT.ADTTE.PARAMCD" SoftHard="Soft">
        <CheckValue>TTSAE</CheckValue>
      </RangeCheck>
    </def:WhereClauseDef>
    <def:WhereClauseDef OID="WC.ADRS.PARAMCD.EQ.PSARESP">
      <RangeCheck Comparator="EQ" def:ItemOID="IT.ADRS.PARAMCD" SoftHard="Soft">
        <CheckValue>PSARESP</CheckValue>
      </RangeCheck>
    </def:WhereClauseDef>
    <def:WhereClauseDef OID="WC.ADRS.PARAMCD.EQ.OBJRESP">
      <RangeCheck Comparator="EQ" def:ItemOID="IT.ADRS.PARAMCD" SoftHard="Soft">
        <CheckValue>OBJRESP</CheckValue>
      </RangeCheck>
    </def:WhereClauseDef>
    <def:WhereClauseDef OID="WC.ADEX.PARAMCD.EQ.RDIDL">
      <RangeCheck Comparator="EQ" def:ItemOID="IT.ADEX.PARAMCD" SoftHard="Soft">
        <CheckValue>RDIDL</CheckValue>
      </RangeCheck>
    </def:WhereClauseDef>
    <def:WhereClauseDef OID="WC.ADAE.TRTEMFL.EQ.Y">
      <RangeCheck Comparator="EQ" def:ItemOID="IT.ADAE.TRTEMFL" SoftHard="Soft">
        <CheckValue>Y</CheckValue>
      </RangeCheck>
    </def:WhereClauseDef>
    <ItemGroupDef OID="IG.ADSL" Name="ADSL" Repeating="No" IsReferenceData="No" Purpose="Analysis" def:Structure="One record per subject" def:ArchiveLocationID="LF.ADSL" def:StandardOID="STD.ADaMIG.1.3">
      <Description>
        <TranslatedText xml:lang="en">Subject-level characteristics, treatment allocations, survival, and baseline covariates.</TranslatedText>
      </Description>
      <ItemRef ItemOID="IT.ADSL.STUDYID" Mandatory="Yes" OrderNumber="1" KeySequence="1"/>
      <ItemRef ItemOID="IT.ADSL.USUBJID" Mandatory="Yes" OrderNumber="2" KeySequence="2"/>
      <ItemRef ItemOID="IT.ADSL.SUBJID" Mandatory="Yes" OrderNumber="3"/>
      <ItemRef ItemOID="IT.ADSL.SITEID" Mandatory="Yes" OrderNumber="4"/>
      <ItemRef ItemOID="IT.ADSL.AGE" Mandatory="Yes" OrderNumber="5"/>
      <ItemRef ItemOID="IT.ADSL.AGEGR1" Mandatory="Yes" OrderNumber="6"/>
      <ItemRef ItemOID="IT.ADSL.AGEGR1N" Mandatory="Yes" OrderNumber="7"/>
      <ItemRef ItemOID="IT.ADSL.RACE" Mandatory="Yes" OrderNumber="8"/>
      <ItemRef ItemOID="IT.ADSL.ETHNIC" Mandatory="No" OrderNumber="9"/>
      <ItemRef ItemOID="IT.ADSL.SEX" Mandatory="Yes" OrderNumber="10"/>
      <ItemRef ItemOID="IT.ADSL.TRT01P" Mandatory="Yes" OrderNumber="11"/>
      <ItemRef ItemOID="IT.ADSL.TRT01PN" Mandatory="Yes" OrderNumber="12"/>
      <ItemRef ItemOID="IT.ADSL.TRT01A" Mandatory="Yes" OrderNumber="13" MethodOID="MT.TRT01A"/>
      <ItemRef ItemOID="IT.ADSL.TRT01AN" Mandatory="Yes" OrderNumber="14" MethodOID="MT.TRT01A"/>
      <ItemRef ItemOID="IT.ADSL.RANDDT" Mandatory="Yes" OrderNumber="15"/>
      <ItemRef ItemOID="IT.ADSL.TRTSDT" Mandatory="Yes" MethodOID="MT.TRTSDT" OrderNumber="16"/>
      <ItemRef ItemOID="IT.ADSL.TRTEDT" Mandatory="No" MethodOID="MT.TRTEDT" OrderNumber="17"/>
      <ItemRef ItemOID="IT.ADSL.TRTDURD" Mandatory="No" MethodOID="MT.TRTDURD" OrderNumber="18"/>
      <ItemRef ItemOID="IT.ADSL.ITTFL" Mandatory="Yes" MethodOID="MT.ITTFL" OrderNumber="19"/>
      <ItemRef ItemOID="IT.ADSL.SAFFL" Mandatory="Yes" MethodOID="MT.SAFFL" OrderNumber="20"/>
      <ItemRef ItemOID="IT.ADSL.PPROTFL" Mandatory="Yes" OrderNumber="21"/>
      <ItemRef ItemOID="IT.ADSL.DTHFL" Mandatory="Yes" OrderNumber="22"/>
      <ItemRef ItemOID="IT.ADSL.DTHDT" Mandatory="No" OrderNumber="23" MethodOID="MT.DTHDT"/>
      <ItemRef ItemOID="IT.ADSL.DTHCAUS" Mandatory="No" OrderNumber="24"/>
      <ItemRef ItemOID="IT.ADSL.LSTALVDT" Mandatory="Yes" OrderNumber="25" MethodOID="MT.LSTALVDT"/>
      <ItemRef ItemOID="IT.ADSL.ECOGBL" Mandatory="No" MethodOID="MT.ECOGBL" OrderNumber="26"/>
      <ItemRef ItemOID="IT.ADSL.MEASDISF" Mandatory="No" MethodOID="MT.MEASDISF" OrderNumber="27"/>
      <ItemRef ItemOID="IT.ADSL.VISCFL" Mandatory="No" OrderNumber="28"/>
      <ItemRef ItemOID="IT.ADSL.PAINBL" Mandatory="No" MethodOID="MT.PAINBL" OrderNumber="29"/>
      <ItemRef ItemOID="IT.ADSL.PSABL" Mandatory="No" OrderNumber="30"/>
      <ItemRef ItemOID="IT.ADSL.ALPBL" Mandatory="No" OrderNumber="31"/>
      <ItemRef ItemOID="IT.ADSL.ALBBL" Mandatory="No" OrderNumber="32"/>
      <ItemRef ItemOID="IT.ADSL.LDHBL" Mandatory="No" OrderNumber="33"/>
      <ItemRef ItemOID="IT.ADSL.HGBBL" Mandatory="No" OrderNumber="34"/>
      <ItemRef ItemOID="IT.ADSL.DOCPROG" Mandatory="No" OrderNumber="35"/>
      <ItemRef ItemOID="IT.ADSL.DOCRESP" Mandatory="No" OrderNumber="36"/>
      <ItemRef ItemOID="IT.ADSL.ECOGBLIF" Mandatory="No" OrderNumber="37" MethodOID="MT.ECOGBLIF"/>
      <ItemRef ItemOID="IT.ADSL.PSABLIF" Mandatory="No" OrderNumber="38" MethodOID="MT.PSABLIF"/>
      <ItemRef ItemOID="IT.ADSL.ALPBLIF" Mandatory="No" OrderNumber="39" MethodOID="MT.ALPBLIF"/>
      <ItemRef ItemOID="IT.ADSL.HGBBLIF" Mandatory="No" OrderNumber="40" MethodOID="MT.HGBBLIF"/>
      <ItemRef ItemOID="IT.ADSL.ALBBLIF" Mandatory="No" OrderNumber="41" MethodOID="MT.ALBBLIF"/>
      <ItemRef ItemOID="IT.ADSL.LDHBLIF" Mandatory="No" OrderNumber="42" MethodOID="MT.LDHBLIF"/>
      <def:Class Name="SUBJECT LEVEL ANALYSIS DATASET"/>
      <def:leaf ID="LF.ADSL" xlink:href="adsl.xpt">
        <def:title>adsl.xpt</def:title>
      </def:leaf>
    </ItemGroupDef>
    <ItemGroupDef OID="IG.ADEX" Name="ADEX" Repeating="Yes" IsReferenceData="No" Purpose="Analysis" def:Structure="One record per subject per parameter per visit" def:ArchiveLocationID="LF.ADEX" def:StandardOID="STD.ADaMIG.1.3">
      <Description>
        <TranslatedText xml:lang="en">Primary randomized IV antineoplastic exposure: cycle-level administered dose and adjustments; subject-level source RDI, cumulative exposure, and administered-cycle counts.</TranslatedText>
      </Description>
      <ItemRef ItemOID="IT.ADEX.STUDYID" Mandatory="Yes" OrderNumber="1" KeySequence="1"/>
      <ItemRef ItemOID="IT.ADEX.USUBJID" Mandatory="Yes" OrderNumber="2" KeySequence="2"/>
      <ItemRef ItemOID="IT.ADEX.SUBJID" Mandatory="Yes" OrderNumber="3"/>
      <ItemRef ItemOID="IT.ADEX.TRT01P" Mandatory="Yes" OrderNumber="4"/>
      <ItemRef ItemOID="IT.ADEX.TRT01PN" Mandatory="Yes" OrderNumber="5"/>
      <ItemRef ItemOID="IT.ADEX.TRTSDT" Mandatory="Yes" OrderNumber="6"/>
      <ItemRef ItemOID="IT.ADEX.PARAMCD" Mandatory="Yes" OrderNumber="7" KeySequence="3"/>
      <ItemRef ItemOID="IT.ADEX.PARAM" Mandatory="Yes" OrderNumber="8"/>
      <ItemRef ItemOID="IT.ADEX.PARCAT1" Mandatory="Yes" OrderNumber="9"/>
      <ItemRef ItemOID="IT.ADEX.AVAL" Mandatory="No" OrderNumber="10" MethodOID="MT.ADEX_AVAL"/>
      <ItemRef ItemOID="IT.ADEX.AVALC" Mandatory="No" OrderNumber="11" MethodOID="MT.ADEX_AVALC"/>
      <ItemRef ItemOID="IT.ADEX.AVISIT" Mandatory="Yes" OrderNumber="12" KeySequence="4"/>
      <ItemRef ItemOID="IT.ADEX.PARAMN" Mandatory="No" OrderNumber="13" MethodOID="MT.ADEX_PARAMN"/>
      <ItemRef ItemOID="IT.ADEX.AVISITN" Mandatory="No" OrderNumber="14" MethodOID="MT.ADEX_AVISITN"/>
      <def:Class Name="BASIC DATA STRUCTURE"/>
      <def:leaf ID="LF.ADEX" xlink:href="adex.xpt">
        <def:title>adex.xpt</def:title>
      </def:leaf>
    </ItemGroupDef>
    <ItemGroupDef OID="IG.ADCM" Name="ADCM" Repeating="Yes" IsReferenceData="No" Purpose="Analysis" def:Structure="One record per subject per medication" def:ArchiveLocationID="LF.ADCM" def:StandardOID="STD.ADaMIG.1.3">
      <Description>
        <TranslatedText xml:lang="en">Concomitant medication usage including G-CSF prophylaxis markers, prednisone compliance, and NACT timelines.</TranslatedText>
      </Description>
      <ItemRef ItemOID="IT.ADCM.STUDYID" Mandatory="Yes" OrderNumber="1" KeySequence="1"/>
      <ItemRef ItemOID="IT.ADCM.USUBJID" Mandatory="Yes" OrderNumber="2" KeySequence="2"/>
      <ItemRef ItemOID="IT.ADCM.CMDECOD" Mandatory="Yes" OrderNumber="3"/>
      <ItemRef ItemOID="IT.ADCM.CMCAT" Mandatory="Yes" OrderNumber="4"/>
      <ItemRef ItemOID="IT.ADCM.CMINDC" Mandatory="No" OrderNumber="5"/>
      <ItemRef ItemOID="IT.ADCM.ASTDT" Mandatory="No" OrderNumber="6" MethodOID="MT.ADCM_ASTDT"/>
      <ItemRef ItemOID="IT.ADCM.AENDT" Mandatory="No" OrderNumber="7" MethodOID="MT.ADCM_AENDT"/>
      <ItemRef ItemOID="IT.ADCM.CMTRT" Mandatory="Yes" OrderNumber="8"/>
      <ItemRef ItemOID="IT.ADCM.ASTDY" Mandatory="No" OrderNumber="9" MethodOID="MT.ADCM_ASTDY"/>
      <ItemRef ItemOID="IT.ADCM.GCSFFL" Mandatory="No" OrderNumber="10"/>
      <ItemRef ItemOID="IT.ADCM.GCSFPRFL" Mandatory="No" OrderNumber="11"/>
      <ItemRef ItemOID="IT.ADCM.NACTFL" Mandatory="No" OrderNumber="12"/>
      <ItemRef ItemOID="IT.ADCM.NACTDT" Mandatory="No" OrderNumber="13"/>
      <ItemRef ItemOID="IT.ADCM.PREDNFL" Mandatory="No" OrderNumber="14"/>
      <ItemRef ItemOID="IT.ADCM.TRTEMFL" Mandatory="No" OrderNumber="15"/>
      <ItemRef ItemOID="IT.ADCM.CMSEQ" Mandatory="Yes" OrderNumber="16" KeySequence="3"/>
      <def:Class Name="OCCURRENCE DATA STRUCTURE"/>
      <def:leaf ID="LF.ADCM" xlink:href="adcm.xpt">
        <def:title>adcm.xpt</def:title>
      </def:leaf>
    </ItemGroupDef>
    <ItemGroupDef OID="IG.ADAE" Name="ADAE" Repeating="Yes" IsReferenceData="No" Purpose="Analysis" def:Structure="One record per subject per adverse event" def:ArchiveLocationID="LF.ADAE" def:StandardOID="STD.ADaMIG.1.3">
      <Description>
        <TranslatedText xml:lang="en">Treatment-emergent adverse events, severity classifications, serious AEs, and custom myelosuppressive episode merging.</TranslatedText>
      </Description>
      <ItemRef ItemOID="IT.ADAE.STUDYID" Mandatory="Yes" OrderNumber="1" KeySequence="1"/>
      <ItemRef ItemOID="IT.ADAE.USUBJID" Mandatory="Yes" OrderNumber="2" KeySequence="2"/>
      <ItemRef ItemOID="IT.ADAE.AEDECOD" Mandatory="Yes" OrderNumber="3"/>
      <ItemRef ItemOID="IT.ADAE.AEBODSYS" Mandatory="Yes" OrderNumber="4"/>
      <ItemRef ItemOID="IT.ADAE.AEHLT" Mandatory="No" OrderNumber="5"/>
      <ItemRef ItemOID="IT.ADAE.AESEV" Mandatory="No" OrderNumber="6"/>
      <ItemRef ItemOID="IT.ADAE.ATOXGR" Mandatory="No" OrderNumber="7" MethodOID="MT.ADAE_ATOXGR"/>
      <ItemRef ItemOID="IT.ADAE.AESER" Mandatory="No" OrderNumber="8"/>
      <ItemRef ItemOID="IT.ADAE.AEREL" Mandatory="No" OrderNumber="9"/>
      <ItemRef ItemOID="IT.ADAE.ASTDT" Mandatory="No" OrderNumber="10"/>
      <ItemRef ItemOID="IT.ADAE.AENDT" Mandatory="No" OrderNumber="11"/>
      <ItemRef ItemOID="IT.ADAE.ASTDY" Mandatory="No" OrderNumber="12"/>
      <ItemRef ItemOID="IT.ADAE.AENDY" Mandatory="No" OrderNumber="13"/>
      <ItemRef ItemOID="IT.ADAE.AEACN" Mandatory="No" OrderNumber="14"/>
      <ItemRef ItemOID="IT.ADAE.AEOUT" Mandatory="No" OrderNumber="15"/>
      <ItemRef ItemOID="IT.ADAE.CQ02NAM" Mandatory="No" OrderNumber="16"/>
      <ItemRef ItemOID="IT.ADAE.CQ02CD" Mandatory="No" OrderNumber="17"/>
      <ItemRef ItemOID="IT.ADAE.CQ02SC" Mandatory="No" OrderNumber="18"/>
      <ItemRef ItemOID="IT.ADAE.CIAESEQ" Mandatory="No" OrderNumber="19"/>
      <ItemRef ItemOID="IT.ADAE.CIAESDT" Mandatory="No" OrderNumber="20"/>
      <ItemRef ItemOID="IT.ADAE.CIAEEDT" Mandatory="No" OrderNumber="21"/>
      <ItemRef ItemOID="IT.ADAE.CIAEDUR" Mandatory="No" OrderNumber="22"/>
      <ItemRef ItemOID="IT.ADAE.AEOCCFL" Mandatory="No" OrderNumber="23"/>
      <ItemRef ItemOID="IT.ADAE.TRTEMFL" Mandatory="No" OrderNumber="24"/>
      <ItemRef ItemOID="IT.ADAE.ADURN" Mandatory="No" OrderNumber="25"/>
      <ItemRef ItemOID="IT.ADAE.ADURU" Mandatory="No" OrderNumber="26"/>
      <ItemRef ItemOID="IT.ADAE.AESEQ" Mandatory="No" OrderNumber="27" KeySequence="3"/>
      <ItemRef ItemOID="IT.ADAE.TRTA" Mandatory="Yes" OrderNumber="28"/>
      <ItemRef ItemOID="IT.ADAE.TRTAN" Mandatory="Yes" OrderNumber="29"/>
      <def:Class Name="OCCURRENCE DATA STRUCTURE"/>
      <def:leaf ID="LF.ADAE" xlink:href="adae.xpt">
        <def:title>adae.xpt</def:title>
      </def:leaf>
    </ItemGroupDef>
    <ItemGroupDef OID="IG.ADLB" Name="ADLB" Repeating="Yes" IsReferenceData="No" Purpose="Analysis" def:Structure="One record per subject per parameter per visit" def:ArchiveLocationID="LF.ADLB" def:StandardOID="STD.ADaMIG.1.3">
      <Description>
        <TranslatedText xml:lang="en">Longitudinal laboratory measurements with source-carried toxicity grades, source-flagged baselines, analysis-window flags (ANL01FL), and ANC nadir/recovery parameters.</TranslatedText>
      </Description>
      <ItemRef ItemOID="IT.ADLB.STUDYID" Mandatory="Yes" OrderNumber="1" KeySequence="1"/>
      <ItemRef ItemOID="IT.ADLB.USUBJID" Mandatory="Yes" OrderNumber="2" KeySequence="2"/>
      <ItemRef ItemOID="IT.ADLB.SUBJID" Mandatory="Yes" OrderNumber="3"/>
      <ItemRef ItemOID="IT.ADLB.TRT01P" Mandatory="Yes" OrderNumber="4"/>
      <ItemRef ItemOID="IT.ADLB.TRTSDT" Mandatory="Yes" OrderNumber="5"/>
      <ItemRef ItemOID="IT.ADLB.PARAMCD" Mandatory="Yes" OrderNumber="6" KeySequence="3"/>
      <ItemRef ItemOID="IT.ADLB.PARAM" Mandatory="Yes" OrderNumber="7"/>
      <ItemRef ItemOID="IT.ADLB.PARAMN" Mandatory="Yes" OrderNumber="8"/>
      <ItemRef ItemOID="IT.ADLB.PARCAT1" Mandatory="Yes" OrderNumber="9" MethodOID="MT.ADLB_PARCAT1"/>
      <ItemRef ItemOID="IT.ADLB.AVAL" Mandatory="No" OrderNumber="10" MethodOID="MT.ADLB_AVAL"/>
      <ItemRef ItemOID="IT.ADLB.AVALC" Mandatory="No" OrderNumber="11" MethodOID="MT.ADLB_AVALC"/>
      <ItemRef ItemOID="IT.ADLB.LBNRLO" Mandatory="No" OrderNumber="12"/>
      <ItemRef ItemOID="IT.ADLB.LBNRHI" Mandatory="No" OrderNumber="13"/>
      <ItemRef ItemOID="IT.ADLB.LBNRIND" Mandatory="No" OrderNumber="14"/>
      <ItemRef ItemOID="IT.ADLB.AVISIT" Mandatory="Yes" OrderNumber="15"/>
      <ItemRef ItemOID="IT.ADLB.AVISITN" Mandatory="Yes" OrderNumber="16" KeySequence="4"/>
      <ItemRef ItemOID="IT.ADLB.AWDIST" Mandatory="No" OrderNumber="17"/>
      <ItemRef ItemOID="IT.ADLB.ATOXGR" Mandatory="No" OrderNumber="18" MethodOID="MT.ADLB_ATOXGR"/>
      <ItemRef ItemOID="IT.ADLB.BASE" Mandatory="No" OrderNumber="19" MethodOID="MT.ADLB_BASE"/>
      <ItemRef ItemOID="IT.ADLB.BASEC" Mandatory="No" OrderNumber="20" MethodOID="MT.ADLB_BASEC"/>
      <ItemRef ItemOID="IT.ADLB.BTOXGR" Mandatory="No" OrderNumber="21"/>
      <ItemRef ItemOID="IT.ADLB.CHG" Mandatory="No" OrderNumber="22" MethodOID="MT.ADLB_CHG"/>
      <ItemRef ItemOID="IT.ADLB.PCHG" Mandatory="No" OrderNumber="23" MethodOID="MT.ADLB_PCHG"/>
      <ItemRef ItemOID="IT.ADLB.ANL01FL" Mandatory="No" OrderNumber="24"/>
      <ItemRef ItemOID="IT.ADLB.ABLFL" Mandatory="No" OrderNumber="25" MethodOID="MT.ADLB_ABLFL"/>
      <ItemRef ItemOID="IT.ADLB.LBDY" Mandatory="No" OrderNumber="26" KeySequence="5"/>
      <ItemRef ItemOID="IT.ADLB.ADT" Mandatory="No" OrderNumber="27" MethodOID="MT.ADLB_ADT"/>
      <ItemRef ItemOID="IT.ADLB.LBSEQ" Mandatory="No" OrderNumber="28" KeySequence="6"/>
      <def:Class Name="BASIC DATA STRUCTURE"/>
      <def:leaf ID="LF.ADLB" xlink:href="adlb.xpt">
        <def:title>adlb.xpt</def:title>
      </def:leaf>
    </ItemGroupDef>
    <ItemGroupDef OID="IG.ADRS" Name="ADRS" Repeating="Yes" IsReferenceData="No" Purpose="Analysis" def:Structure="One record per subject per parameter per visit" def:ArchiveLocationID="LF.ADRS" def:StandardOID="STD.ADaMIG.1.3">
      <Description>
        <TranslatedText xml:lang="en">Lesion-derived RECIST v1.0 assessments, confirmed objective response, reconstructed PSA endpoints, exploratory bone 2+2 status, and separately typed disposition clinical progression.</TranslatedText>
      </Description>
      <ItemRef ItemOID="IT.ADRS.STUDYID" Mandatory="Yes" OrderNumber="1" KeySequence="1"/>
      <ItemRef ItemOID="IT.ADRS.USUBJID" Mandatory="Yes" OrderNumber="2" KeySequence="2"/>
      <ItemRef ItemOID="IT.ADRS.SUBJID" Mandatory="Yes" OrderNumber="3"/>
      <ItemRef ItemOID="IT.ADRS.TRT01P" Mandatory="Yes" OrderNumber="4"/>
      <ItemRef ItemOID="IT.ADRS.TRTSDT" Mandatory="Yes" OrderNumber="5"/>
      <ItemRef ItemOID="IT.ADRS.PARAMCD" Mandatory="Yes" OrderNumber="6" KeySequence="3"/>
      <ItemRef ItemOID="IT.ADRS.PARAM" Mandatory="Yes" OrderNumber="7"/>
      <ItemRef ItemOID="IT.ADRS.AVALC" Mandatory="No" OrderNumber="8" MethodOID="MT.ADRS_AVALC"/>
      <ItemRef ItemOID="IT.ADRS.ADT" Mandatory="Yes" OrderNumber="9" KeySequence="4"/>
      <ItemRef ItemOID="IT.ADRS.ADY" Mandatory="No" OrderNumber="10"/>
      <ItemRef ItemOID="IT.ADRS.AVISIT" Mandatory="Yes" OrderNumber="11" KeySequence="5"/>
      <ItemRef ItemOID="IT.ADRS.ANL01FL" Mandatory="No" OrderNumber="12"/>
      <ItemRef ItemOID="IT.ADRS.AVAL" Mandatory="No" OrderNumber="13" MethodOID="MT.ADRS_AVAL"/>
      <def:Class Name="BASIC DATA STRUCTURE"/>
      <def:leaf ID="LF.ADRS" xlink:href="adrs.xpt">
        <def:title>adrs.xpt</def:title>
      </def:leaf>
    </ItemGroupDef>
    <ItemGroupDef OID="IG.ADTTE" Name="ADTTE" Repeating="Yes" IsReferenceData="No" Purpose="Analysis" def:Structure="One record per subject per time-to-event parameter" def:ArchiveLocationID="LF.ADTTE" def:StandardOID="STD.ADaMIG.1.3">
      <Description>
        <TranslatedText xml:lang="en">Time-to-event endpoints including Overall Survival (OS), Progression-Free Survival (PFS), time to PSA progression (TTPSA), time to tumor progression (TTUMOR), time to pain progression (TTPAIN), and time to first serious adverse event (TTSAE).</TranslatedText>
      </Description>
      <ItemRef ItemOID="IT.ADTTE.STUDYID" Mandatory="Yes" OrderNumber="1" KeySequence="1"/>
      <ItemRef ItemOID="IT.ADTTE.USUBJID" Mandatory="Yes" OrderNumber="2" KeySequence="2"/>
      <ItemRef ItemOID="IT.ADTTE.SUBJID" Mandatory="Yes" OrderNumber="3"/>
      <ItemRef ItemOID="IT.ADTTE.SITEID" Mandatory="Yes" OrderNumber="4"/>
      <ItemRef ItemOID="IT.ADTTE.TRT01P" Mandatory="Yes" OrderNumber="5"/>
      <ItemRef ItemOID="IT.ADTTE.TRT01PN" Mandatory="Yes" OrderNumber="6"/>
      <ItemRef ItemOID="IT.ADTTE.ITTFL" Mandatory="Yes" OrderNumber="7" MethodOID="MT.ADTTE_ITTFL"/>
      <ItemRef ItemOID="IT.ADTTE.SAFFL" Mandatory="Yes" OrderNumber="8" MethodOID="MT.ADTTE_SAFFL"/>
      <ItemRef ItemOID="IT.ADTTE.PARAMCD" Mandatory="Yes" OrderNumber="9" KeySequence="3"/>
      <ItemRef ItemOID="IT.ADTTE.PARAM" Mandatory="Yes" OrderNumber="10"/>
      <ItemRef ItemOID="IT.ADTTE.PARAMN" Mandatory="No" OrderNumber="11" MethodOID="MT.ADTTE_PARAMN"/>
      <ItemRef ItemOID="IT.ADTTE.PARCAT1" Mandatory="No" OrderNumber="12" MethodOID="MT.ADTTE_PARCAT1"/>
      <ItemRef ItemOID="IT.ADTTE.STARTDT" Mandatory="Yes" OrderNumber="13" MethodOID="MT.ADTTE_ADT"/>
      <ItemRef ItemOID="IT.ADTTE.ADT" Mandatory="Yes" OrderNumber="14" MethodOID="MT.ADTTE_ADT"/>
      <ItemRef ItemOID="IT.ADTTE.CNSR" Mandatory="Yes" MethodOID="MT.CNSR_TTE" OrderNumber="15"/>
      <ItemRef ItemOID="IT.ADTTE.EVNTDESC" Mandatory="No" OrderNumber="16" MethodOID="MT.ADTTE_ADT"/>
      <ItemRef ItemOID="IT.ADTTE.CNSDTDSC" Mandatory="No" OrderNumber="17" MethodOID="MT.ADTTE_ADT"/>
      <ItemRef ItemOID="IT.ADTTE.AVAL" Mandatory="Yes" MethodOID="MT.AVAL_TTE" OrderNumber="18"/>
      <ItemRef ItemOID="IT.ADTTE.AVALU" Mandatory="No" OrderNumber="19" MethodOID="MT.ADTTE_AVALU"/>
      <def:Class Name="BASIC DATA STRUCTURE"/>
      <def:leaf ID="LF.ADTTE" xlink:href="adtte.xpt">
        <def:title>adtte.xpt</def:title>
      </def:leaf>
    </ItemGroupDef>
    <ItemDef OID="IT.ADSL.STUDYID" Name="STUDYID" DataType="text" Length="40">
      <Description><TranslatedText xml:lang="en">Study Identifier</TranslatedText></Description><def:Origin Type="Protocol" Source="Sponsor"/>
    </ItemDef>
    <ItemDef OID="IT.ADSL.USUBJID" Name="USUBJID" DataType="text" Length="40">
      <Description><TranslatedText xml:lang="en">Unique Subject Identifier</TranslatedText></Description><def:Origin Type="Collected" Source="Sponsor"/>
    </ItemDef>
    <ItemDef OID="IT.ADSL.SUBJID" Name="SUBJID" DataType="text" Length="20">
      <Description><TranslatedText xml:lang="en">Subject Identifier for the Study</TranslatedText></Description><def:Origin Type="Collected" Source="Sponsor"/>
    </ItemDef>
    <ItemDef OID="IT.ADSL.SITEID" Name="SITEID" DataType="text" Length="10">
      <Description><TranslatedText xml:lang="en">Study Site Identifier</TranslatedText></Description><def:Origin Type="Collected" Source="Sponsor"/>
    </ItemDef>
    <ItemDef OID="IT.ADSL.AGE" Name="AGE" DataType="float" Length="8">
      <Description><TranslatedText xml:lang="en">Age</TranslatedText></Description><def:Origin Type="Collected" Source="Sponsor"/>
    </ItemDef>
    <ItemDef OID="IT.ADSL.AGEGR1" Name="AGEGR1" DataType="text" Length="20">
      <Description><TranslatedText xml:lang="en">Pooled Age Group 1</TranslatedText></Description><CodeListRef CodeListOID="CL.AGEGR"/>
      <def:Origin Type="Collected" Source="Sponsor"/>
    </ItemDef>
    <ItemDef OID="IT.ADSL.AGEGR1N" Name="AGEGR1N" DataType="float" Length="8">
      <Description><TranslatedText xml:lang="en">Pooled Age Group 1 (N)</TranslatedText></Description><def:Origin Type="Collected" Source="Sponsor"/>
    </ItemDef>
    <ItemDef OID="IT.ADSL.RACE" Name="RACE" DataType="text" Length="40">
      <Description><TranslatedText xml:lang="en">Race</TranslatedText></Description><def:Origin Type="Collected" Source="Sponsor"/>
    </ItemDef>
    <ItemDef OID="IT.ADSL.ETHNIC" Name="ETHNIC" DataType="text" Length="40">
      <Description><TranslatedText xml:lang="en">Ethnicity</TranslatedText></Description><def:Origin Type="Assigned" Source="Sponsor"/>
    </ItemDef>
    <ItemDef OID="IT.ADSL.SEX" Name="SEX" DataType="text" Length="2">
      <Description><TranslatedText xml:lang="en">Sex</TranslatedText></Description><CodeListRef CodeListOID="CL.SEX"/>
      <def:Origin Type="Collected" Source="Sponsor"/>
    </ItemDef>
    <ItemDef OID="IT.ADSL.TRT01P" Name="TRT01P" DataType="text" Length="40">
      <Description><TranslatedText xml:lang="en">Planned Treatment for Period 01</TranslatedText></Description><CodeListRef CodeListOID="CL.TRT"/>
      <def:Origin Type="Assigned" Source="Sponsor"/>
    </ItemDef>
    <ItemDef OID="IT.ADSL.TRT01PN" Name="TRT01PN" DataType="float" Length="8">
      <Description><TranslatedText xml:lang="en">Planned Treatment for Period 01 (N)</TranslatedText></Description><CodeListRef CodeListOID="CL.TRT01PN"/>
      <def:Origin Type="Assigned" Source="Sponsor"/>
    </ItemDef>
    <ItemDef OID="IT.ADSL.TRT01A" Name="TRT01A" DataType="text" Length="40">
      <Description><TranslatedText xml:lang="en">Actual Treatment for Period 01</TranslatedText></Description><CodeListRef CodeListOID="CL.TRT"/>
      <def:Origin Type="Derived" Source="Sponsor"/>
    </ItemDef>
    <ItemDef OID="IT.ADSL.TRT01AN" Name="TRT01AN" DataType="float" Length="8">
      <Description><TranslatedText xml:lang="en">Actual Treatment for Period 01 (N)</TranslatedText></Description><CodeListRef CodeListOID="CL.TRT01PN"/>
      <def:Origin Type="Derived" Source="Sponsor"/>
    </ItemDef>
    <ItemDef OID="IT.ADSL.RANDDT" Name="RANDDT" DataType="date" Length="10">
      <Description><TranslatedText xml:lang="en">Randomization Date</TranslatedText></Description><def:Origin Type="Collected" Source="Sponsor"/>
    </ItemDef>
    <ItemDef OID="IT.ADSL.TRTSDT" Name="TRTSDT" DataType="date" Length="10">
      <Description><TranslatedText xml:lang="en">Date of First Exposure to Treatment</TranslatedText></Description><def:Origin Type="Derived" Source="Sponsor"/>
    </ItemDef>
    <ItemDef OID="IT.ADSL.TRTEDT" Name="TRTEDT" DataType="date" Length="10">
      <Description><TranslatedText xml:lang="en">Date of Last Exposure to Treatment</TranslatedText></Description><def:Origin Type="Derived" Source="Sponsor"/>
    </ItemDef>
    <ItemDef OID="IT.ADSL.TRTDURD" Name="TRTDURD" DataType="float" Length="8">
      <Description><TranslatedText xml:lang="en">Total Treatment Duration (Days)</TranslatedText></Description><def:Origin Type="Derived" Source="Sponsor"/>
    </ItemDef>
    <ItemDef OID="IT.ADSL.ITTFL" Name="ITTFL" DataType="text" Length="1">
      <Description><TranslatedText xml:lang="en">Intent-to-Treat Population Flag</TranslatedText></Description><CodeListRef CodeListOID="CL.NY"/>
      <def:Origin Type="Derived" Source="Sponsor"/>
    </ItemDef>
    <ItemDef OID="IT.ADSL.SAFFL" Name="SAFFL" DataType="text" Length="1">
      <Description><TranslatedText xml:lang="en">Safety Population Flag</TranslatedText></Description><CodeListRef CodeListOID="CL.NY"/>
      <def:Origin Type="Derived" Source="Sponsor"/>
    </ItemDef>
    <ItemDef OID="IT.ADSL.PPROTFL" Name="PPROTFL" DataType="text" Length="1">
      <Description><TranslatedText xml:lang="en">Per-Protocol Population Flag</TranslatedText></Description><CodeListRef CodeListOID="CL.NY"/>
      <def:Origin Type="Collected" Source="Sponsor"/>
    </ItemDef>
    <ItemDef OID="IT.ADSL.DTHFL" Name="DTHFL" DataType="text" Length="1">
      <Description><TranslatedText xml:lang="en">Subject Death Flag</TranslatedText></Description><CodeListRef CodeListOID="CL.NY"/>
      <def:Origin Type="Collected" Source="Sponsor"/>
    </ItemDef>
    <ItemDef OID="IT.ADSL.DTHDT" Name="DTHDT" DataType="date" Length="10">
      <Description><TranslatedText xml:lang="en">Date of Death</TranslatedText></Description><def:Origin Type="Derived" Source="Sponsor"/>
    </ItemDef>
    <ItemDef OID="IT.ADSL.DTHCAUS" Name="DTHCAUS" DataType="text" Length="200">
      <Description><TranslatedText xml:lang="en">Primary Cause of Death</TranslatedText></Description><def:Origin Type="Collected" Source="Sponsor"/>
    </ItemDef>
    <ItemDef OID="IT.ADSL.LSTALVDT" Name="LSTALVDT" DataType="date" Length="10">
      <Description><TranslatedText xml:lang="en">Date Last Known Alive</TranslatedText></Description><def:Origin Type="Derived" Source="Sponsor"/>
    </ItemDef>
    <ItemDef OID="IT.ADSL.ECOGBL" Name="ECOGBL" DataType="float" Length="8">
      <Description><TranslatedText xml:lang="en">Baseline ECOG Performance Status</TranslatedText></Description><def:Origin Type="Derived" Source="Sponsor"/>
    </ItemDef>
    <ItemDef OID="IT.ADSL.MEASDISF" Name="MEASDISF" DataType="text" Length="1">
      <Description><TranslatedText xml:lang="en">Baseline Measurable Disease Flag</TranslatedText></Description><CodeListRef CodeListOID="CL.NY"/>
      <def:Origin Type="Derived" Source="Sponsor"/>
    </ItemDef>
    <ItemDef OID="IT.ADSL.VISCFL" Name="VISCFL" DataType="text" Length="1">
      <Description><TranslatedText xml:lang="en">Baseline Visceral Metastasis Flag</TranslatedText></Description><CodeListRef CodeListOID="CL.NY"/>
      <def:Origin Type="Collected" Source="Sponsor"/>
    </ItemDef>
    <ItemDef OID="IT.ADSL.PAINBL" Name="PAINBL" DataType="text" Length="1">
      <Description><TranslatedText xml:lang="en">Baseline Pain Assessment Flag</TranslatedText></Description><CodeListRef CodeListOID="CL.NY"/>
      <def:Origin Type="Derived" Source="Sponsor"/>
    </ItemDef>
    <ItemDef OID="IT.ADSL.PSABL" Name="PSABL" DataType="float" Length="8">
      <Description><TranslatedText xml:lang="en">Baseline PSA (ug/L)</TranslatedText></Description><def:Origin Type="Collected" Source="Sponsor"/>
    </ItemDef>
    <ItemDef OID="IT.ADSL.ALPBL" Name="ALPBL" DataType="float" Length="8">
      <Description><TranslatedText xml:lang="en">Baseline Alkaline Phosphatase (U/L)</TranslatedText></Description><def:Origin Type="Collected" Source="Sponsor"/>
    </ItemDef>
    <ItemDef OID="IT.ADSL.ALBBL" Name="ALBBL" DataType="float" Length="8">
      <Description><TranslatedText xml:lang="en">Baseline Albumin (g/L)</TranslatedText></Description><def:Origin Type="Assigned" Source="Sponsor">
        <Description>
          <TranslatedText xml:lang="en">Not collected in the public MP SDTM release; left missing with blank imputation flag (see ADRG 5.1).</TranslatedText>
        </Description>
      </def:Origin>
    </ItemDef>
    <ItemDef OID="IT.ADSL.LDHBL" Name="LDHBL" DataType="float" Length="8">
      <Description><TranslatedText xml:lang="en">Baseline Lactate Dehydrogenase (U/L)</TranslatedText></Description><def:Origin Type="Assigned" Source="Sponsor">
        <Description>
          <TranslatedText xml:lang="en">Not collected in the public MP SDTM release; left missing with blank imputation flag (see ADRG 5.1).</TranslatedText>
        </Description>
      </def:Origin>
    </ItemDef>
    <ItemDef OID="IT.ADSL.HGBBL" Name="HGBBL" DataType="float" Length="8">
      <Description><TranslatedText xml:lang="en">Baseline Hemoglobin (g/dL)</TranslatedText></Description><def:Origin Type="Collected" Source="Sponsor"/>
    </ItemDef>
    <ItemDef OID="IT.ADSL.DOCPROG" Name="DOCPROG" DataType="text" Length="20">
      <Description><TranslatedText xml:lang="en">Docetaxel Prior Progression Class</TranslatedText></Description><def:Origin Type="Collected" Source="Sponsor"/>
    </ItemDef>
    <ItemDef OID="IT.ADSL.DOCRESP" Name="DOCRESP" DataType="text" Length="1">
      <Description><TranslatedText xml:lang="en">Docetaxel Prior Response Flag</TranslatedText></Description><CodeListRef CodeListOID="CL.NY"/>
      <def:Origin Type="Collected" Source="Sponsor"/>
    </ItemDef>
    <ItemDef OID="IT.ADSL.ECOGBLIF" Name="ECOGBLIF" DataType="text" Length="1">
      <Description><TranslatedText xml:lang="en">Baseline ECOG Imputation Flag</TranslatedText></Description><CodeListRef CodeListOID="CL.NY"/>
      <def:Origin Type="Derived" Source="Sponsor">
        <Description>
          <TranslatedText xml:lang="en">Set to 'N' because no ECOGBL imputation is performed; a missing source baseline remains missing.</TranslatedText>
        </Description>
      </def:Origin>
    </ItemDef>
    <ItemDef OID="IT.ADSL.PSABLIF" Name="PSABLIF" DataType="text" Length="1">
      <Description><TranslatedText xml:lang="en">Baseline PSA Imputation Flag</TranslatedText></Description><CodeListRef CodeListOID="CL.NY"/>
      <def:Origin Type="Derived" Source="Sponsor">
        <Description>
          <TranslatedText xml:lang="en">Set to 'N' because no PSABL imputation is performed; a missing source baseline remains missing.</TranslatedText>
        </Description>
      </def:Origin>
    </ItemDef>
    <ItemDef OID="IT.ADSL.ALPBLIF" Name="ALPBLIF" DataType="text" Length="1">
      <Description><TranslatedText xml:lang="en">Baseline ALP Imputation Flag</TranslatedText></Description><CodeListRef CodeListOID="CL.NY"/>
      <def:Origin Type="Derived" Source="Sponsor">
        <Description>
          <TranslatedText xml:lang="en">Set to 'N' because no ALPBL imputation is performed; a missing source baseline remains missing.</TranslatedText>
        </Description>
      </def:Origin>
    </ItemDef>
    <ItemDef OID="IT.ADSL.HGBBLIF" Name="HGBBLIF" DataType="text" Length="1">
      <Description><TranslatedText xml:lang="en">Baseline Hemoglobin Imputation Flag</TranslatedText></Description><CodeListRef CodeListOID="CL.NY"/>
      <def:Origin Type="Derived" Source="Sponsor">
        <Description>
          <TranslatedText xml:lang="en">Set to 'N' because no HGBBL imputation is performed; a missing source baseline remains missing.</TranslatedText>
        </Description>
      </def:Origin>
    </ItemDef>
    <ItemDef OID="IT.ADSL.ALBBLIF" Name="ALBBLIF" DataType="text" Length="1">
      <Description><TranslatedText xml:lang="en">Baseline Albumin Imputation Flag</TranslatedText></Description><CodeListRef CodeListOID="CL.NY"/>
      <def:Origin Type="Derived" Source="Sponsor">
        <Description>
          <TranslatedText xml:lang="en">Blank — ALBBL is not collected and is left missing (no imputation).</TranslatedText>
        </Description>
      </def:Origin>
    </ItemDef>
    <ItemDef OID="IT.ADSL.LDHBLIF" Name="LDHBLIF" DataType="text" Length="1">
      <Description><TranslatedText xml:lang="en">Baseline LDH Imputation Flag</TranslatedText></Description><CodeListRef CodeListOID="CL.NY"/>
      <def:Origin Type="Derived" Source="Sponsor">
        <Description>
          <TranslatedText xml:lang="en">Blank — LDHBL is not collected and is left missing (no imputation).</TranslatedText>
        </Description>
      </def:Origin>
    </ItemDef>
    <ItemDef OID="IT.ADEX.STUDYID" Name="STUDYID" DataType="text" Length="40">
      <Description><TranslatedText xml:lang="en">Study Identifier</TranslatedText></Description><def:Origin Type="Protocol" Source="Sponsor"/>
    </ItemDef>
    <ItemDef OID="IT.ADEX.USUBJID" Name="USUBJID" DataType="text" Length="40">
      <Description><TranslatedText xml:lang="en">Unique Subject Identifier</TranslatedText></Description><def:Origin Type="Collected" Source="Sponsor"/>
    </ItemDef>
    <ItemDef OID="IT.ADEX.SUBJID" Name="SUBJID" DataType="text" Length="20">
      <Description><TranslatedText xml:lang="en">Subject Identifier for the Study</TranslatedText></Description><def:Origin Type="Collected" Source="Sponsor"/>
    </ItemDef>
    <ItemDef OID="IT.ADEX.TRT01P" Name="TRT01P" DataType="text" Length="40">
      <Description><TranslatedText xml:lang="en">Planned Treatment for Period 01</TranslatedText></Description><CodeListRef CodeListOID="CL.TRT"/>
      <def:Origin Type="Assigned" Source="Sponsor"/>
    </ItemDef>
    <ItemDef OID="IT.ADEX.TRT01PN" Name="TRT01PN" DataType="float" Length="8">
      <Description><TranslatedText xml:lang="en">Planned Treatment for Period 01 (N)</TranslatedText></Description><CodeListRef CodeListOID="CL.TRT01PN"/>
      <def:Origin Type="Assigned" Source="Sponsor"/>
    </ItemDef>
    <ItemDef OID="IT.ADEX.TRTSDT" Name="TRTSDT" DataType="date" Length="10">
      <Description><TranslatedText xml:lang="en">Date of First Exposure to Treatment</TranslatedText></Description><def:Origin Type="Collected" Source="Sponsor"/>
    </ItemDef>
    <ItemDef OID="IT.ADEX.PARAMCD" Name="PARAMCD" DataType="text" Length="20">
      <Description><TranslatedText xml:lang="en">Parameter Code</TranslatedText></Description><CodeListRef CodeListOID="CL.PARAMCD"/>
      <def:Origin Type="Collected" Source="Sponsor"/>
    </ItemDef>
    <ItemDef OID="IT.ADEX.PARAM" Name="PARAM" DataType="text" Length="200">
      <Description><TranslatedText xml:lang="en">Parameter</TranslatedText></Description><def:Origin Type="Collected" Source="Sponsor"/>
    </ItemDef>
    <ItemDef OID="IT.ADEX.PARCAT1" Name="PARCAT1" DataType="text" Length="20">
      <Description><TranslatedText xml:lang="en">Parameter Category 1</TranslatedText></Description><def:Origin Type="Collected" Source="Sponsor"/>
    </ItemDef>
    <ItemDef OID="IT.ADEX.AVAL" Name="AVAL" DataType="float" Length="8">
      <Description><TranslatedText xml:lang="en">Analysis Value</TranslatedText></Description><def:ValueListRef ValueListOID="VL.ADEX.AVAL"/>
      <def:Origin Type="Derived" Source="Sponsor"/>
    </ItemDef>
    <ItemDef OID="IT.ADEX.AVALC" Name="AVALC" DataType="text" Length="100">
      <Description><TranslatedText xml:lang="en">Analysis Value (C)</TranslatedText></Description><def:Origin Type="Derived" Source="Sponsor"/>
    </ItemDef>
    <ItemDef OID="IT.ADEX.AVISIT" Name="AVISIT" DataType="text" Length="40">
      <Description><TranslatedText xml:lang="en">Analysis Visit</TranslatedText></Description><def:Origin Type="Collected" Source="Sponsor"/>
    </ItemDef>
    <ItemDef OID="IT.ADEX.PARAMN" Name="PARAMN" DataType="float" Length="8">
      <Description><TranslatedText xml:lang="en">Parameter (N)</TranslatedText></Description><def:Origin Type="Derived" Source="Sponsor"/>
    </ItemDef>
    <ItemDef OID="IT.ADEX.AVISITN" Name="AVISITN" DataType="float" Length="8">
      <Description><TranslatedText xml:lang="en">Analysis Visit (N)</TranslatedText></Description><def:Origin Type="Derived" Source="Sponsor"/>
    </ItemDef>
    <ItemDef OID="IT.ADCM.STUDYID" Name="STUDYID" DataType="text" Length="40">
      <Description><TranslatedText xml:lang="en">Study Identifier</TranslatedText></Description><def:Origin Type="Protocol" Source="Sponsor"/>
    </ItemDef>
    <ItemDef OID="IT.ADCM.USUBJID" Name="USUBJID" DataType="text" Length="40">
      <Description><TranslatedText xml:lang="en">Unique Subject Identifier</TranslatedText></Description><def:Origin Type="Collected" Source="Sponsor"/>
    </ItemDef>
    <ItemDef OID="IT.ADCM.CMDECOD" Name="CMDECOD" DataType="text" Length="100">
      <Description><TranslatedText xml:lang="en">Standardized Medication Name</TranslatedText></Description><def:Origin Type="Collected" Source="Sponsor"/>
    </ItemDef>
    <ItemDef OID="IT.ADCM.CMCAT" Name="CMCAT" DataType="text" Length="100">
      <Description><TranslatedText xml:lang="en">Category for Medication</TranslatedText></Description><def:Origin Type="Collected" Source="Sponsor"/>
    </ItemDef>
    <ItemDef OID="IT.ADCM.CMINDC" Name="CMINDC" DataType="text" Length="200">
      <Description><TranslatedText xml:lang="en">Indication</TranslatedText></Description><def:Origin Type="Collected" Source="Sponsor"/>
    </ItemDef>
    <ItemDef OID="IT.ADCM.ASTDT" Name="ASTDT" DataType="date" Length="10">
      <Description><TranslatedText xml:lang="en">Analysis Start Date</TranslatedText></Description><def:Origin Type="Derived" Source="Sponsor"/>
    </ItemDef>
    <ItemDef OID="IT.ADCM.AENDT" Name="AENDT" DataType="date" Length="10">
      <Description><TranslatedText xml:lang="en">Analysis End Date</TranslatedText></Description><def:Origin Type="Derived" Source="Sponsor"/>
    </ItemDef>
    <ItemDef OID="IT.ADCM.CMTRT" Name="CMTRT" DataType="text" Length="200">
      <Description><TranslatedText xml:lang="en">Reported Name of Drug, Med, or Therapy</TranslatedText></Description><def:Origin Type="Collected" Source="Sponsor"/>
    </ItemDef>
    <ItemDef OID="IT.ADCM.ASTDY" Name="ASTDY" DataType="float" Length="8">
      <Description><TranslatedText xml:lang="en">Analysis Start Day</TranslatedText></Description><def:Origin Type="Derived" Source="Sponsor"/>
    </ItemDef>
    <ItemDef OID="IT.ADCM.GCSFFL" Name="GCSFFL" DataType="text" Length="1">
      <Description><TranslatedText xml:lang="en">G-CSF Concomitant Med Flag</TranslatedText></Description><CodeListRef CodeListOID="CL.NY"/>
      <def:Origin Type="Collected" Source="Sponsor"/>
    </ItemDef>
    <ItemDef OID="IT.ADCM.GCSFPRFL" Name="GCSFPRFL" DataType="text" Length="1">
      <Description><TranslatedText xml:lang="en">G-CSF Prophylactic Med Flag</TranslatedText></Description><CodeListRef CodeListOID="CL.NY"/>
      <def:Origin Type="Collected" Source="Sponsor"/>
    </ItemDef>
    <ItemDef OID="IT.ADCM.NACTFL" Name="NACTFL" DataType="text" Length="1">
      <Description><TranslatedText xml:lang="en">New Anti-Cancer Therapy Flag</TranslatedText></Description><CodeListRef CodeListOID="CL.NY"/>
      <def:Origin Type="Collected" Source="Sponsor"/>
    </ItemDef>
    <ItemDef OID="IT.ADCM.NACTDT" Name="NACTDT" DataType="date" Length="10" def:CommentOID="COM.NACTDT">
      <Description><TranslatedText xml:lang="en">First Date of New Anti-Cancer Therapy</TranslatedText></Description><def:Origin Type="Collected" Source="Sponsor"/>
    </ItemDef>
    <ItemDef OID="IT.ADCM.PREDNFL" Name="PREDNFL" DataType="text" Length="1">
      <Description><TranslatedText xml:lang="en">Prednisone Co-Medication Flag</TranslatedText></Description><CodeListRef CodeListOID="CL.NY"/>
      <def:Origin Type="Collected" Source="Sponsor"/>
    </ItemDef>
    <ItemDef OID="IT.ADCM.TRTEMFL" Name="TRTEMFL" DataType="text" Length="1">
      <Description><TranslatedText xml:lang="en">Treatment Emergent Med Flag</TranslatedText></Description><CodeListRef CodeListOID="CL.NY"/>
      <def:Origin Type="Assigned" Source="Sponsor"/>
    </ItemDef>
    <ItemDef OID="IT.ADCM.CMSEQ" Name="CMSEQ" DataType="integer" Length="8">
      <Description><TranslatedText xml:lang="en">Concomitant Medication Sequence Number</TranslatedText></Description><def:Origin Type="Predecessor" Source="Sponsor"/>
    </ItemDef>
    <ItemDef OID="IT.ADAE.TRTA" Name="TRTA" DataType="text" Length="20">
      <Description><TranslatedText xml:lang="en">Actual Treatment</TranslatedText></Description><CodeListRef CodeListOID="CL.TRT"/>
      <def:Origin Type="Assigned" Source="Sponsor"/>
    </ItemDef>
    <ItemDef OID="IT.ADAE.TRTAN" Name="TRTAN" DataType="float" Length="8">
      <Description><TranslatedText xml:lang="en">Actual Treatment (N)</TranslatedText></Description><CodeListRef CodeListOID="CL.TRT01PN"/>
      <def:Origin Type="Assigned" Source="Sponsor"/>
    </ItemDef>
    <ItemDef OID="IT.ADAE.STUDYID" Name="STUDYID" DataType="text" Length="40">
      <Description><TranslatedText xml:lang="en">Study Identifier</TranslatedText></Description><def:Origin Type="Protocol" Source="Sponsor"/>
    </ItemDef>
    <ItemDef OID="IT.ADAE.USUBJID" Name="USUBJID" DataType="text" Length="40">
      <Description><TranslatedText xml:lang="en">Unique Subject Identifier</TranslatedText></Description><def:Origin Type="Collected" Source="Sponsor"/>
    </ItemDef>
    <ItemDef OID="IT.ADAE.AEDECOD" Name="AEDECOD" DataType="text" Length="100">
      <Description><TranslatedText xml:lang="en">Dictionary-Derived Term</TranslatedText></Description><def:Origin Type="Collected" Source="Sponsor"/>
    </ItemDef>
    <ItemDef OID="IT.ADAE.AEBODSYS" Name="AEBODSYS" DataType="text" Length="100">
      <Description><TranslatedText xml:lang="en">Body System or Organ Class</TranslatedText></Description><def:Origin Type="Collected" Source="Sponsor"/>
    </ItemDef>
    <ItemDef OID="IT.ADAE.AEHLT" Name="AEHLT" DataType="text" Length="100">
      <Description><TranslatedText xml:lang="en">High Level Term</TranslatedText></Description><def:Origin Type="Collected" Source="Sponsor"/>
    </ItemDef>
    <ItemDef OID="IT.ADAE.AESEV" Name="AESEV" DataType="text" Length="10">
      <Description><TranslatedText xml:lang="en">Severity/Intensity</TranslatedText></Description><def:Origin Type="Collected" Source="Sponsor"/>
    </ItemDef>
    <ItemDef OID="IT.ADAE.ATOXGR" Name="ATOXGR" DataType="float" Length="8">
      <Description><TranslatedText xml:lang="en">Analysis Toxicity Grade</TranslatedText></Description><def:Origin Type="Derived" Source="Sponsor"/>
    </ItemDef>
    <ItemDef OID="IT.ADAE.AESER" Name="AESER" DataType="text" Length="1">
      <Description><TranslatedText xml:lang="en">Serious Event</TranslatedText></Description><CodeListRef CodeListOID="CL.NY"/>
      <def:Origin Type="Collected" Source="Sponsor"/>
    </ItemDef>
    <ItemDef OID="IT.ADAE.AEREL" Name="AEREL" DataType="text" Length="40">
      <Description><TranslatedText xml:lang="en">Causality</TranslatedText></Description><def:Origin Type="Collected" Source="Sponsor"/>
    </ItemDef>
    <ItemDef OID="IT.ADAE.ASTDT" Name="ASTDT" DataType="date" Length="10">
      <Description><TranslatedText xml:lang="en">Analysis Start Date</TranslatedText></Description><def:Origin Type="Collected" Source="Sponsor"/>
    </ItemDef>
    <ItemDef OID="IT.ADAE.AENDT" Name="AENDT" DataType="date" Length="10">
      <Description><TranslatedText xml:lang="en">Analysis End Date</TranslatedText></Description><def:Origin Type="Collected" Source="Sponsor"/>
    </ItemDef>
    <ItemDef OID="IT.ADAE.ASTDY" Name="ASTDY" DataType="float" Length="8">
      <Description><TranslatedText xml:lang="en">Analysis Start Day</TranslatedText></Description><def:Origin Type="Collected" Source="Sponsor"/>
    </ItemDef>
    <ItemDef OID="IT.ADAE.AENDY" Name="AENDY" DataType="float" Length="8">
      <Description><TranslatedText xml:lang="en">Analysis End Day</TranslatedText></Description><def:Origin Type="Collected" Source="Sponsor"/>
    </ItemDef>
    <ItemDef OID="IT.ADAE.AEACN" Name="AEACN" DataType="text" Length="100">
      <Description><TranslatedText xml:lang="en">Action Taken with Study Treatment</TranslatedText></Description><def:Origin Type="Collected" Source="Sponsor"/>
    </ItemDef>
    <ItemDef OID="IT.ADAE.AEOUT" Name="AEOUT" DataType="text" Length="100">
      <Description><TranslatedText xml:lang="en">Outcome of Adverse Event</TranslatedText></Description><def:Origin Type="Collected" Source="Sponsor"/>
    </ItemDef>
    <ItemDef OID="IT.ADAE.CQ02NAM" Name="CQ02NAM" DataType="text" Length="100">
      <Description><TranslatedText xml:lang="en">Customized Query 02 Name</TranslatedText></Description><def:Origin Type="Collected" Source="Sponsor"/>
    </ItemDef>
    <ItemDef OID="IT.ADAE.CQ02CD" Name="CQ02CD" DataType="text" Length="8">
      <Description><TranslatedText xml:lang="en">Customized Query 02 Code</TranslatedText></Description><def:Origin Type="Collected" Source="Sponsor"/>
    </ItemDef>
    <ItemDef OID="IT.ADAE.CQ02SC" Name="CQ02SC" DataType="text" Length="10">
      <Description><TranslatedText xml:lang="en">Customized Query 02 Source</TranslatedText></Description><def:Origin Type="Collected" Source="Sponsor"/>
    </ItemDef>
    <ItemDef OID="IT.ADAE.CIAESEQ" Name="CIAESEQ" DataType="float" Length="8" def:CommentOID="COM.CIAESEQ">
      <Description><TranslatedText xml:lang="en">Custom Episode Sequence Number</TranslatedText></Description><def:Origin Type="Collected" Source="Sponsor"/>
    </ItemDef>
    <ItemDef OID="IT.ADAE.CIAESDT" Name="CIAESDT" DataType="date" Length="10">
      <Description><TranslatedText xml:lang="en">Custom Episode Start Date</TranslatedText></Description><def:Origin Type="Collected" Source="Sponsor"/>
    </ItemDef>
    <ItemDef OID="IT.ADAE.CIAEEDT" Name="CIAEEDT" DataType="date" Length="10">
      <Description><TranslatedText xml:lang="en">Custom Episode End Date</TranslatedText></Description><def:Origin Type="Collected" Source="Sponsor"/>
    </ItemDef>
    <ItemDef OID="IT.ADAE.CIAEDUR" Name="CIAEDUR" DataType="float" Length="8">
      <Description><TranslatedText xml:lang="en">Custom Episode Duration (Months)</TranslatedText></Description><def:Origin Type="Collected" Source="Sponsor"/>
    </ItemDef>
    <ItemDef OID="IT.ADAE.AEOCCFL" Name="AEOCCFL" DataType="text" Length="1">
      <Description><TranslatedText xml:lang="en">Adverse Event Occurrence Flag</TranslatedText></Description><CodeListRef CodeListOID="CL.NY"/>
      <def:Origin Type="Collected" Source="Sponsor"/>
    </ItemDef>
    <ItemDef OID="IT.ADAE.TRTEMFL" Name="TRTEMFL" DataType="text" Length="1">
      <Description><TranslatedText xml:lang="en">Treatment Emergent AE Flag</TranslatedText></Description><CodeListRef CodeListOID="CL.NY"/>
      <def:Origin Type="Assigned" Source="Sponsor"/>
    </ItemDef>
    <ItemDef OID="IT.ADAE.ADURN" Name="ADURN" DataType="float" Length="8">
      <Description><TranslatedText xml:lang="en">AE Duration (Numeric)</TranslatedText></Description><def:Origin Type="Collected" Source="Sponsor"/>
    </ItemDef>
    <ItemDef OID="IT.ADAE.ADURU" Name="ADURU" DataType="text" Length="20">
      <Description><TranslatedText xml:lang="en">AE Duration Units</TranslatedText></Description><def:Origin Type="Collected" Source="Sponsor"/>
    </ItemDef>
    <ItemDef OID="IT.ADAE.AESEQ" Name="AESEQ" DataType="integer" Length="8">
      <Description><TranslatedText xml:lang="en">Adverse Event Sequence Number</TranslatedText></Description><def:Origin Type="Collected" Source="Sponsor"/>
    </ItemDef>
    <ItemDef OID="IT.ADLB.STUDYID" Name="STUDYID" DataType="text" Length="40">
      <Description><TranslatedText xml:lang="en">Study Identifier</TranslatedText></Description><def:Origin Type="Protocol" Source="Sponsor"/>
    </ItemDef>
    <ItemDef OID="IT.ADLB.USUBJID" Name="USUBJID" DataType="text" Length="40">
      <Description><TranslatedText xml:lang="en">Unique Subject Identifier</TranslatedText></Description><def:Origin Type="Collected" Source="Sponsor"/>
    </ItemDef>
    <ItemDef OID="IT.ADLB.SUBJID" Name="SUBJID" DataType="text" Length="20">
      <Description><TranslatedText xml:lang="en">Subject Identifier for the Study</TranslatedText></Description><def:Origin Type="Collected" Source="Sponsor"/>
    </ItemDef>
    <ItemDef OID="IT.ADLB.TRT01P" Name="TRT01P" DataType="text" Length="40">
      <Description><TranslatedText xml:lang="en">Planned Treatment for Period 01</TranslatedText></Description><CodeListRef CodeListOID="CL.TRT"/>
      <def:Origin Type="Assigned" Source="Sponsor"/>
    </ItemDef>
    <ItemDef OID="IT.ADLB.TRTSDT" Name="TRTSDT" DataType="date" Length="10">
      <Description><TranslatedText xml:lang="en">Date of First Exposure to Treatment</TranslatedText></Description><def:Origin Type="Collected" Source="Sponsor"/>
    </ItemDef>
    <ItemDef OID="IT.ADLB.PARAMCD" Name="PARAMCD" DataType="text" Length="20">
      <Description><TranslatedText xml:lang="en">Parameter Code</TranslatedText></Description><CodeListRef CodeListOID="CL.PARAMCD"/>
      <def:Origin Type="Collected" Source="Sponsor"/>
    </ItemDef>
    <ItemDef OID="IT.ADLB.PARAM" Name="PARAM" DataType="text" Length="200">
      <Description><TranslatedText xml:lang="en">Parameter</TranslatedText></Description><def:Origin Type="Collected" Source="Sponsor"/>
    </ItemDef>
    <ItemDef OID="IT.ADLB.PARAMN" Name="PARAMN" DataType="float" Length="8">
      <Description><TranslatedText xml:lang="en">Parameter (N)</TranslatedText></Description><def:Origin Type="Collected" Source="Sponsor"/>
    </ItemDef>
    <ItemDef OID="IT.ADLB.PARCAT1" Name="PARCAT1" DataType="text" Length="20">
      <Description><TranslatedText xml:lang="en">Parameter Category 1</TranslatedText></Description><def:Origin Type="Derived" Source="Sponsor"/>
    </ItemDef>
    <ItemDef OID="IT.ADLB.ADT" Name="ADT" DataType="date" Length="10">
      <Description><TranslatedText xml:lang="en">Analysis Date</TranslatedText></Description><def:Origin Type="Derived" Source="Sponsor"/>
    </ItemDef>
    <ItemDef OID="IT.ADLB.AVAL" Name="AVAL" DataType="float" Length="8">
      <Description><TranslatedText xml:lang="en">Analysis Value</TranslatedText></Description><def:ValueListRef ValueListOID="VL.ADLB.AVAL"/>
      <def:Origin Type="Derived" Source="Sponsor"/>
    </ItemDef>
    <ItemDef OID="IT.ADLB.AVALC" Name="AVALC" DataType="text" Length="100">
      <Description><TranslatedText xml:lang="en">Analysis Value (C)</TranslatedText></Description><def:Origin Type="Derived" Source="Sponsor"/>
    </ItemDef>
    <ItemDef OID="IT.ADLB.LBNRLO" Name="LBNRLO" DataType="text" Length="100">
      <Description><TranslatedText xml:lang="en">Reference Range Lower Limit in Orig Unit</TranslatedText></Description><def:Origin Type="Collected" Source="Sponsor"/>
    </ItemDef>
    <ItemDef OID="IT.ADLB.LBNRHI" Name="LBNRHI" DataType="text" Length="100">
      <Description><TranslatedText xml:lang="en">Reference Range Upper Limit in Orig Unit</TranslatedText></Description><def:Origin Type="Collected" Source="Sponsor"/>
    </ItemDef>
    <ItemDef OID="IT.ADLB.LBNRIND" Name="LBNRIND" DataType="text" Length="20">
      <Description><TranslatedText xml:lang="en">Reference Range Indicator</TranslatedText></Description><def:Origin Type="Collected" Source="Sponsor"/>
    </ItemDef>
    <ItemDef OID="IT.ADLB.AVISIT" Name="AVISIT" DataType="text" Length="40">
      <Description><TranslatedText xml:lang="en">Analysis Visit</TranslatedText></Description><def:Origin Type="Collected" Source="Sponsor"/>
    </ItemDef>
    <ItemDef OID="IT.ADLB.AVISITN" Name="AVISITN" DataType="float" Length="8">
      <Description><TranslatedText xml:lang="en">Analysis Visit (N)</TranslatedText></Description><def:Origin Type="Collected" Source="Sponsor"/>
    </ItemDef>
    <ItemDef OID="IT.ADLB.AWDIST" Name="AWDIST" DataType="float" Length="8">
      <Description><TranslatedText xml:lang="en">Analysis Window Distance</TranslatedText></Description><def:Origin Type="Collected" Source="Sponsor"/>
    </ItemDef>
    <ItemDef OID="IT.ADLB.ATOXGR" Name="ATOXGR" DataType="float" Length="8">
      <Description><TranslatedText xml:lang="en">Analysis Toxicity Grade</TranslatedText></Description><def:Origin Type="Predecessor" Source="Sponsor"/>
    </ItemDef>
    <ItemDef OID="IT.ADLB.BASE" Name="BASE" DataType="float" Length="8">
      <Description><TranslatedText xml:lang="en">Baseline Value</TranslatedText></Description><def:Origin Type="Derived" Source="Sponsor"/>
    </ItemDef>
    <ItemDef OID="IT.ADLB.BASEC" Name="BASEC" DataType="text" Length="100">
      <Description><TranslatedText xml:lang="en">Result or Finding in Original Units</TranslatedText></Description><def:Origin Type="Derived" Source="Sponsor"/>
    </ItemDef>
    <ItemDef OID="IT.ADLB.BTOXGR" Name="BTOXGR" DataType="float" Length="8">
      <Description><TranslatedText xml:lang="en">Baseline Toxicity Grade</TranslatedText></Description><def:Origin Type="Collected" Source="Sponsor"/>
    </ItemDef>
    <ItemDef OID="IT.ADLB.CHG" Name="CHG" DataType="float" Length="8">
      <Description><TranslatedText xml:lang="en">Change from Baseline</TranslatedText></Description><def:Origin Type="Derived" Source="Sponsor"/>
    </ItemDef>
    <ItemDef OID="IT.ADLB.PCHG" Name="PCHG" DataType="float" Length="8">
      <Description><TranslatedText xml:lang="en">Percent Change from Baseline</TranslatedText></Description><def:Origin Type="Derived" Source="Sponsor"/>
    </ItemDef>
    <ItemDef OID="IT.ADLB.ANL01FL" Name="ANL01FL" DataType="text" Length="1">
      <Description><TranslatedText xml:lang="en">Analysis Record Flag 01</TranslatedText></Description><CodeListRef CodeListOID="CL.NY"/>
      <def:Origin Type="Collected" Source="Sponsor"/>
    </ItemDef>
    <ItemDef OID="IT.ADLB.ABLFL" Name="ABLFL" DataType="text" Length="1">
      <Description><TranslatedText xml:lang="en">Baseline Record Flag</TranslatedText></Description><CodeListRef CodeListOID="CL.NY"/>
      <def:Origin Type="Derived" Source="Sponsor"/>
    </ItemDef>
    <ItemDef OID="IT.ADLB.LBDY" Name="LBDY" DataType="float" Length="8">
      <Description><TranslatedText xml:lang="en">Analysis Day</TranslatedText></Description><def:Origin Type="Collected" Source="Sponsor"/>
    </ItemDef>
    <ItemDef OID="IT.ADLB.LBSEQ" Name="LBSEQ" DataType="integer" Length="8">
      <Description><TranslatedText xml:lang="en">Laboratory Test Sequence Number</TranslatedText></Description><def:Origin Type="Predecessor" Source="Sponsor"/>
    </ItemDef>
    <ItemDef OID="IT.ADRS.STUDYID" Name="STUDYID" DataType="text" Length="40">
      <Description><TranslatedText xml:lang="en">Study Identifier</TranslatedText></Description><def:Origin Type="Protocol" Source="Sponsor"/>
    </ItemDef>
    <ItemDef OID="IT.ADRS.USUBJID" Name="USUBJID" DataType="text" Length="40">
      <Description><TranslatedText xml:lang="en">Unique Subject Identifier</TranslatedText></Description><def:Origin Type="Collected" Source="Sponsor"/>
    </ItemDef>
    <ItemDef OID="IT.ADRS.SUBJID" Name="SUBJID" DataType="text" Length="20">
      <Description><TranslatedText xml:lang="en">Subject Identifier for the Study</TranslatedText></Description><def:Origin Type="Collected" Source="Sponsor"/>
    </ItemDef>
    <ItemDef OID="IT.ADRS.TRT01P" Name="TRT01P" DataType="text" Length="40">
      <Description><TranslatedText xml:lang="en">Planned Treatment for Period 01</TranslatedText></Description><CodeListRef CodeListOID="CL.TRT"/>
      <def:Origin Type="Assigned" Source="Sponsor"/>
    </ItemDef>
    <ItemDef OID="IT.ADRS.TRTSDT" Name="TRTSDT" DataType="date" Length="10">
      <Description><TranslatedText xml:lang="en">Date of First Exposure to Treatment</TranslatedText></Description><def:Origin Type="Collected" Source="Sponsor"/>
    </ItemDef>
    <ItemDef OID="IT.ADRS.PARAMCD" Name="PARAMCD" DataType="text" Length="20">
      <Description><TranslatedText xml:lang="en">Parameter Code</TranslatedText></Description><CodeListRef CodeListOID="CL.PARAMCD"/>
      <def:Origin Type="Collected" Source="Sponsor"/>
    </ItemDef>
    <ItemDef OID="IT.ADRS.PARAM" Name="PARAM" DataType="text" Length="200">
      <Description><TranslatedText xml:lang="en">Parameter</TranslatedText></Description><def:Origin Type="Collected" Source="Sponsor"/>
    </ItemDef>
    <ItemDef OID="IT.ADRS.AVALC" Name="AVALC" DataType="text" Length="100">
      <Description><TranslatedText xml:lang="en">Analysis Value (C)</TranslatedText></Description><def:Origin Type="Derived" Source="Sponsor"/>
    </ItemDef>
    <ItemDef OID="IT.ADRS.ADT" Name="ADT" DataType="date" Length="10">
      <Description><TranslatedText xml:lang="en">Analysis Date</TranslatedText></Description><def:Origin Type="Collected" Source="Sponsor"/>
    </ItemDef>
    <ItemDef OID="IT.ADRS.ADY" Name="ADY" DataType="float" Length="8">
      <Description><TranslatedText xml:lang="en">Analysis Day</TranslatedText></Description><def:Origin Type="Collected" Source="Sponsor"/>
    </ItemDef>
    <ItemDef OID="IT.ADRS.AVISIT" Name="AVISIT" DataType="text" Length="40">
      <Description><TranslatedText xml:lang="en">Analysis Visit</TranslatedText></Description><def:Origin Type="Collected" Source="Sponsor"/>
    </ItemDef>
    <ItemDef OID="IT.ADRS.ANL01FL" Name="ANL01FL" DataType="text" Length="1">
      <Description><TranslatedText xml:lang="en">Analysis Record Flag 01</TranslatedText></Description><CodeListRef CodeListOID="CL.NY"/>
      <def:Origin Type="Collected" Source="Sponsor"/>
    </ItemDef>
    <ItemDef OID="IT.ADRS.AVAL" Name="AVAL" DataType="float" Length="8">
      <Description><TranslatedText xml:lang="en">Analysis Value</TranslatedText></Description><def:Origin Type="Derived" Source="Sponsor"/>
    </ItemDef>
    <ItemDef OID="IT.ADTTE.STUDYID" Name="STUDYID" DataType="text" Length="40">
      <Description><TranslatedText xml:lang="en">Study Identifier</TranslatedText></Description><def:Origin Type="Protocol" Source="Sponsor"/>
    </ItemDef>
    <ItemDef OID="IT.ADTTE.USUBJID" Name="USUBJID" DataType="text" Length="40">
      <Description><TranslatedText xml:lang="en">Unique Subject Identifier</TranslatedText></Description><def:Origin Type="Collected" Source="Sponsor"/>
    </ItemDef>
    <ItemDef OID="IT.ADTTE.SUBJID" Name="SUBJID" DataType="text" Length="20">
      <Description><TranslatedText xml:lang="en">Subject Identifier for the Study</TranslatedText></Description><def:Origin Type="Collected" Source="Sponsor"/>
    </ItemDef>
    <ItemDef OID="IT.ADTTE.SITEID" Name="SITEID" DataType="text" Length="10">
      <Description><TranslatedText xml:lang="en">Study Site Identifier</TranslatedText></Description><def:Origin Type="Collected" Source="Sponsor"/>
    </ItemDef>
    <ItemDef OID="IT.ADTTE.TRT01P" Name="TRT01P" DataType="text" Length="40">
      <Description><TranslatedText xml:lang="en">Planned Treatment for Period 01</TranslatedText></Description><CodeListRef CodeListOID="CL.TRT"/>
      <def:Origin Type="Assigned" Source="Sponsor"/>
    </ItemDef>
    <ItemDef OID="IT.ADTTE.TRT01PN" Name="TRT01PN" DataType="float" Length="8">
      <Description><TranslatedText xml:lang="en">Planned Treatment for Period 01 (N)</TranslatedText></Description><CodeListRef CodeListOID="CL.TRT01PN"/>
      <def:Origin Type="Assigned" Source="Sponsor"/>
    </ItemDef>
    <ItemDef OID="IT.ADTTE.PARAMCD" Name="PARAMCD" DataType="text" Length="20">
      <Description><TranslatedText xml:lang="en">Parameter Code</TranslatedText></Description><CodeListRef CodeListOID="CL.PARAMCD"/>
      <def:Origin Type="Collected" Source="Sponsor"/>
    </ItemDef>
    <ItemDef OID="IT.ADTTE.PARAM" Name="PARAM" DataType="text" Length="200">
      <Description><TranslatedText xml:lang="en">Parameter</TranslatedText></Description><def:Origin Type="Collected" Source="Sponsor"/>
    </ItemDef>
    <ItemDef OID="IT.ADTTE.STARTDT" Name="STARTDT" DataType="date" Length="10">
      <Description><TranslatedText xml:lang="en">Time-to-Event Start Date</TranslatedText></Description><def:Origin Type="Derived" Source="Sponsor"/>
    </ItemDef>
    <ItemDef OID="IT.ADTTE.ADT" Name="ADT" DataType="date" Length="10">
      <Description><TranslatedText xml:lang="en">Analysis Date</TranslatedText></Description><def:Origin Type="Derived" Source="Sponsor"/>
    </ItemDef>
    <ItemDef OID="IT.ADTTE.CNSR" Name="CNSR" DataType="float" Length="8">
      <Description><TranslatedText xml:lang="en">Censor Flag</TranslatedText></Description><CodeListRef CodeListOID="CL.CNSR"/>
      <def:Origin Type="Derived" Source="Sponsor"/>
    </ItemDef>
    <ItemDef OID="IT.ADTTE.EVNTDESC" Name="EVNTDESC" DataType="text" Length="100">
      <Description><TranslatedText xml:lang="en">Event Description</TranslatedText></Description><def:Origin Type="Derived" Source="Sponsor"/>
    </ItemDef>
    <ItemDef OID="IT.ADTTE.CNSDTDSC" Name="CNSDTDSC" DataType="text" Length="100">
      <Description><TranslatedText xml:lang="en">Censoring Description</TranslatedText></Description><def:Origin Type="Derived" Source="Sponsor"/>
    </ItemDef>
    <ItemDef OID="IT.ADTTE.AVAL" Name="AVAL" DataType="float" Length="8">
      <Description><TranslatedText xml:lang="en">Analysis Value (Days)</TranslatedText></Description><def:ValueListRef ValueListOID="VL.ADTTE.AVAL"/>
      <def:Origin Type="Derived" Source="Sponsor"/>
    </ItemDef>
    <ItemDef OID="IT.ADTTE.ITTFL" Name="ITTFL" DataType="text" Length="1">
      <Description><TranslatedText xml:lang="en">Intent-To-Treat Population Flag</TranslatedText></Description><CodeListRef CodeListOID="CL.NY"/>
      <def:Origin Type="Derived" Source="Sponsor"/>
    </ItemDef>
    <ItemDef OID="IT.ADTTE.SAFFL" Name="SAFFL" DataType="text" Length="1">
      <Description><TranslatedText xml:lang="en">Safety Population Flag</TranslatedText></Description><CodeListRef CodeListOID="CL.NY"/>
      <def:Origin Type="Derived" Source="Sponsor"/>
    </ItemDef>
    <ItemDef OID="IT.ADTTE.PARAMN" Name="PARAMN" DataType="float" Length="8">
      <Description><TranslatedText xml:lang="en">Parameter (N)</TranslatedText></Description><def:Origin Type="Derived" Source="Sponsor"/>
    </ItemDef>
    <ItemDef OID="IT.ADTTE.PARCAT1" Name="PARCAT1" DataType="text" Length="20">
      <Description><TranslatedText xml:lang="en">Parameter Category 1</TranslatedText></Description><def:Origin Type="Derived" Source="Sponsor"/>
    </ItemDef>
    <ItemDef OID="IT.ADTTE.AVALU" Name="AVALU" DataType="text" Length="8">
      <Description><TranslatedText xml:lang="en">Analysis Value Unit</TranslatedText></Description><def:Origin Type="Derived" Source="Sponsor"/>
    </ItemDef>
    <ItemDef OID="IT.ADLB.AVAL.NEUT" Name="AVAL" DataType="float" Length="8">
      <Description><TranslatedText xml:lang="en">Absolute Neutrophil Count (x10^3/uL)</TranslatedText></Description><def:Origin Type="Derived" Source="Sponsor"/>
    </ItemDef>
    <ItemDef OID="IT.ADLB.AVAL.ANCNADIR" Name="AVAL" DataType="float" Length="8" def:CommentOID="COM.ANCNADIR">
      <Description><TranslatedText xml:lang="en">Minimum Cycle 1 ANC Nadir (x10^3/uL)</TranslatedText></Description><def:Origin Type="Derived" Source="Sponsor"/>
    </ItemDef>
    <ItemDef OID="IT.ADLB.AVAL.PSA" Name="AVAL" DataType="float" Length="8">
      <Description><TranslatedText xml:lang="en">Prostate Specific Antigen (ug/L)</TranslatedText></Description><def:Origin Type="Derived" Source="Sponsor"/>
    </ItemDef>
    <ItemDef OID="IT.ADEX.AVAL.RDI" Name="AVAL" DataType="float" Length="8">
      <Description><TranslatedText xml:lang="en">Source Relative Dose Intensity (%)</TranslatedText></Description><def:Origin Type="Predecessor" Source="Sponsor"/>
    </ItemDef>
    <ItemDef OID="IT.ADEX.AVAL.NCYCLE" Name="AVAL" DataType="integer" Length="8">
      <Description><TranslatedText xml:lang="en">Number of Cycles Received</TranslatedText></Description><def:Origin Type="Derived" Source="Sponsor"/>
    </ItemDef>
    <ItemDef OID="IT.ADTTE.AVAL.OS" Name="AVAL" DataType="float" Length="8">
      <Description><TranslatedText xml:lang="en">Overall Survival (Days)</TranslatedText></Description><def:Origin Type="Derived" Source="Sponsor"/>
    </ItemDef>
    <ItemDef OID="IT.ADTTE.AVAL.PFS" Name="AVAL" DataType="float" Length="8">
      <Description><TranslatedText xml:lang="en">Progression-Free Survival (Days)</TranslatedText></Description><def:Origin Type="Derived" Source="Sponsor"/>
    </ItemDef>
    <ItemDef OID="IT.ADTTE.AVAL.TTPSA" Name="AVAL" DataType="float" Length="8">
      <Description><TranslatedText xml:lang="en">Time to PSA Progression (Days)</TranslatedText></Description><def:Origin Type="Derived" Source="Sponsor"/>
    </ItemDef>
    <ItemDef OID="IT.ADTTE.AVAL.TTUMOR" Name="AVAL" DataType="float" Length="8">
      <Description><TranslatedText xml:lang="en">Time to RECIST Tumor Progression (Days)</TranslatedText></Description><def:Origin Type="Derived" Source="Sponsor"/>
    </ItemDef>
    <ItemDef OID="IT.ADTTE.AVAL.TTPAIN" Name="AVAL" DataType="float" Length="8">
      <Description><TranslatedText xml:lang="en">Time to Pain Progression (Days)</TranslatedText></Description><def:Origin Type="Derived" Source="Sponsor"/>
    </ItemDef>
    <ItemDef OID="IT.ADTTE.AVAL.TTSAE" Name="AVAL" DataType="float" Length="8">
      <Description><TranslatedText xml:lang="en">Time to First TE Serious AE (Days)</TranslatedText></Description><def:Origin Type="Derived" Source="Sponsor"/>
    </ItemDef>
  <CodeList OID="CL.NY" Name="Yes/No Codelist" DataType="text" def:StandardOID="STD.ADaMCT.2026-03-27">
      <CodeListItem CodedValue="Y">
        <Decode>
          <TranslatedText xml:lang="en">Yes</TranslatedText>
        </Decode>
        <Alias Context="nci:ExtCodeID" Name="C49488"/>
      </CodeListItem>
      <CodeListItem CodedValue="N">
        <Decode>
          <TranslatedText xml:lang="en">No</TranslatedText>
        </Decode>
        <Alias Context="nci:ExtCodeID" Name="C49487"/>
      </CodeListItem>
      <Alias Context="nci:ExtCodeID" Name="C66742"/>
    </CodeList>
    <CodeList OID="CL.SEX" Name="Sex Codelist" DataType="text" def:StandardOID="STD.ADaMCT.2026-03-27">
      <CodeListItem CodedValue="M">
        <Decode>
          <TranslatedText xml:lang="en">Male</TranslatedText>
        </Decode>
        <Alias Context="nci:ExtCodeID" Name="C20197"/>
      </CodeListItem>
      <CodeListItem CodedValue="F">
        <Decode>
          <TranslatedText xml:lang="en">Female</TranslatedText>
        </Decode>
        <Alias Context="nci:ExtCodeID" Name="C16576"/>
      </CodeListItem>
      <Alias Context="nci:ExtCodeID" Name="C66731"/>
    </CodeList>
    <CodeList OID="CL.TRT" Name="Treatment Codelist" DataType="text">
      <CodeListItem CodedValue="CbzP">
        <Decode>
          <TranslatedText xml:lang="en">Cabazitaxel + Prednisone</TranslatedText>
        </Decode>
      </CodeListItem>
      <CodeListItem CodedValue="MP">
        <Decode>
          <TranslatedText xml:lang="en">Mitoxantrone + Prednisone</TranslatedText>
        </Decode>
      </CodeListItem>
    </CodeList>
    <CodeList OID="CL.TRT01PN" Name="Treatment Numeric Codelist" DataType="integer">
      <CodeListItem CodedValue="1">
        <Decode>
          <TranslatedText xml:lang="en">Cabazitaxel + Prednisone</TranslatedText>
        </Decode>
      </CodeListItem>
      <CodeListItem CodedValue="2">
        <Decode>
          <TranslatedText xml:lang="en">Mitoxantrone + Prednisone</TranslatedText>
        </Decode>
      </CodeListItem>
    </CodeList>
    <CodeList OID="CL.AGEGR" Name="Age Group Codelist" DataType="text">
      <CodeListItem CodedValue="&lt;65">
        <Decode>
          <TranslatedText xml:lang="en">&lt;65 Years</TranslatedText>
        </Decode>
      </CodeListItem>
      <CodeListItem CodedValue="&gt;=65">
        <Decode>
          <TranslatedText xml:lang="en">&gt;=65 Years</TranslatedText>
        </Decode>
      </CodeListItem>
    </CodeList>
    <CodeList OID="CL.CNSR" Name="Censoring Codelist" DataType="integer">
      <CodeListItem CodedValue="0">
        <Decode>
          <TranslatedText xml:lang="en">Event</TranslatedText>
        </Decode>
      </CodeListItem>
      <CodeListItem CodedValue="1">
        <Decode>
          <TranslatedText xml:lang="en">Censored</TranslatedText>
        </Decode>
      </CodeListItem>
    </CodeList>
    <CodeList OID="CL.PARAMCD" Name="Parameter Code Codelist" DataType="text">
      <CodeListItem CodedValue="NREDDOSE">
        <Decode>
          <TranslatedText xml:lang="en">Number of Dose Reductions</TranslatedText>
        </Decode>
      </CodeListItem>
      <CodeListItem CodedValue="RDI">
        <Decode>
          <TranslatedText xml:lang="en">Source Relative Dose Intensity (%)</TranslatedText>
        </Decode>
      </CodeListItem>
      <CodeListItem CodedValue="RDIDL">
        <Decode>
          <TranslatedText xml:lang="en">Relative Dose Intensity Category</TranslatedText>
        </Decode>
      </CodeListItem>
      <CodeListItem CodedValue="PERFDOSE">
        <Decode>
          <TranslatedText xml:lang="en">IV Actual Dose Administered (mg/m2)</TranslatedText>
        </Decode>
      </CodeListItem>
      <CodeListItem CodedValue="ADJ">
        <Decode>
          <TranslatedText xml:lang="en">Dose Adjusted Flag</TranslatedText>
        </Decode>
      </CodeListItem>
      <CodeListItem CodedValue="ADJAE">
        <Decode>
          <TranslatedText xml:lang="en">Dose Adjusted due to AE Flag</TranslatedText>
        </Decode>
      </CodeListItem>
      <CodeListItem CodedValue="ANCNADIR">
        <Decode>
          <TranslatedText xml:lang="en">Minimum post-baseline ANC value per cycle</TranslatedText>
        </Decode>
      </CodeListItem>
      <CodeListItem CodedValue="ANCRECDY">
        <Decode>
          <TranslatedText xml:lang="en">Days from nadir to first ANC recovery</TranslatedText>
        </Decode>
      </CodeListItem>
      <CodeListItem CodedValue="OS">
        <Decode>
          <TranslatedText xml:lang="en">Overall Survival</TranslatedText>
        </Decode>
      </CodeListItem>
      <CodeListItem CodedValue="PFS">
        <Decode>
          <TranslatedText xml:lang="en">Progression-Free Survival</TranslatedText>
        </Decode>
      </CodeListItem>
      <CodeListItem CodedValue="TTPSA">
        <Decode>
          <TranslatedText xml:lang="en">Time to PSA Progression</TranslatedText>
        </Decode>
      </CodeListItem>
      <CodeListItem CodedValue="TTUMOR">
        <Decode>
          <TranslatedText xml:lang="en">Time to Tumor Progression</TranslatedText>
        </Decode>
      </CodeListItem>
      <CodeListItem CodedValue="TTPAIN">
        <Decode>
          <TranslatedText xml:lang="en">Time to Pain Progression</TranslatedText>
        </Decode>
      </CodeListItem>
      <CodeListItem CodedValue="TTSAE">
        <Decode>
          <TranslatedText xml:lang="en">Time to First Serious Adverse Event</TranslatedText>
        </Decode>
      </CodeListItem>
          <CodeListItem CodedValue="ALP">
        <Decode>
          <TranslatedText xml:lang="en">ALKALINE PHOSPHATASE</TranslatedText>
        </Decode>
      </CodeListItem>
      <CodeListItem CodedValue="ALT">
        <Decode>
          <TranslatedText xml:lang="en">ALANINE AMINOTRANSFERASE</TranslatedText>
        </Decode>
      </CodeListItem>
      <CodeListItem CodedValue="AST">
        <Decode>
          <TranslatedText xml:lang="en">ASPARTATE AMINOTRANSFERASE</TranslatedText>
        </Decode>
      </CodeListItem>
      <CodeListItem CodedValue="BASO">
        <Decode>
          <TranslatedText xml:lang="en">BASOPHILS</TranslatedText>
        </Decode>
      </CodeListItem>
      <CodeListItem CodedValue="BESTRESP">
        <Decode>
          <TranslatedText xml:lang="en">Best Overall Response (BOR)</TranslatedText>
        </Decode>
      </CodeListItem>
      <CodeListItem CodedValue="BICARB">
        <Decode>
          <TranslatedText xml:lang="en">BICARBONATE</TranslatedText>
        </Decode>
      </CodeListItem>
      <CodeListItem CodedValue="BILI">
        <Decode>
          <TranslatedText xml:lang="en">BILIRUBIN</TranslatedText>
        </Decode>
      </CodeListItem>
      <CodeListItem CodedValue="BUN">
        <Decode>
          <TranslatedText xml:lang="en">BLOOD UREA NITROGEN</TranslatedText>
        </Decode>
      </CodeListItem>
      <CodeListItem CodedValue="CL">
        <Decode>
          <TranslatedText xml:lang="en">CHLORIDE</TranslatedText>
        </Decode>
      </CodeListItem>
      <CodeListItem CodedValue="CREAT">
        <Decode>
          <TranslatedText xml:lang="en">CREATININE</TranslatedText>
        </Decode>
      </CodeListItem>
      <CodeListItem CodedValue="CUMDOSE">
        <Decode>
          <TranslatedText xml:lang="en">Cumulative IV Actual Dose (mg/m2)</TranslatedText>
        </Decode>
      </CodeListItem>
      <CodeListItem CodedValue="EOS">
        <Decode>
          <TranslatedText xml:lang="en">EOSINOPHILS</TranslatedText>
        </Decode>
      </CodeListItem>
      <CodeListItem CodedValue="GLUC">
        <Decode>
          <TranslatedText xml:lang="en">GLUCOSE</TranslatedText>
        </Decode>
      </CodeListItem>
      <CodeListItem CodedValue="HGB">
        <Decode>
          <TranslatedText xml:lang="en">HEMOGLOBIN</TranslatedText>
        </Decode>
      </CodeListItem>
      <CodeListItem CodedValue="K">
        <Decode>
          <TranslatedText xml:lang="en">POTASSIUM</TranslatedText>
        </Decode>
      </CodeListItem>
      <CodeListItem CodedValue="LYM">
        <Decode>
          <TranslatedText xml:lang="en">LYMPHOCYTES</TranslatedText>
        </Decode>
      </CodeListItem>
      <CodeListItem CodedValue="MONO">
        <Decode>
          <TranslatedText xml:lang="en">MONOCYTES</TranslatedText>
        </Decode>
      </CodeListItem>
      <CodeListItem CodedValue="NCYCLE">
        <Decode>
          <TranslatedText xml:lang="en">Number of Cycles Received</TranslatedText>
        </Decode>
      </CodeListItem>
      <CodeListItem CodedValue="NDELDOSE">
        <Decode>
          <TranslatedText xml:lang="en">Number of Dose Delays</TranslatedText>
        </Decode>
      </CodeListItem>
      <CodeListItem CodedValue="NEUT">
        <Decode>
          <TranslatedText xml:lang="en">NEUTROPHILS</TranslatedText>
        </Decode>
      </CodeListItem>
      <CodeListItem CodedValue="OBJRESP">
        <Decode>
          <TranslatedText xml:lang="en">Objective Response (confirmed CR/PR)</TranslatedText>
        </Decode>
      </CodeListItem>
      <CodeListItem CodedValue="OVRLRESP">
        <Decode>
          <TranslatedText xml:lang="en">Overall Response per RECIST v1.0</TranslatedText>
        </Decode>
      </CodeListItem>
      <CodeListItem CodedValue="PLAT">
        <Decode>
          <TranslatedText xml:lang="en">PLATELETS</TranslatedText>
        </Decode>
      </CodeListItem>
      <CodeListItem CodedValue="PLDOSE">
        <Decode>
          <TranslatedText xml:lang="en">Initial Planned IV Dose (mg/m2)</TranslatedText>
        </Decode>
      </CodeListItem>
      <CodeListItem CodedValue="PSA">
        <Decode>
          <TranslatedText xml:lang="en">PROSTATE SPECIFIC ANTIGEN</TranslatedText>
        </Decode>
      </CodeListItem>
      <CodeListItem CodedValue="PSARESP">
        <Decode>
          <TranslatedText xml:lang="en">PSA Response (&gt;=50% decline)</TranslatedText>
        </Decode>
      </CodeListItem>
      <CodeListItem CodedValue="PSPROG">
        <Decode>
          <TranslatedText xml:lang="en">PSA Progression (reconstructed rule)</TranslatedText>
        </Decode>
      </CodeListItem>
      <CodeListItem CodedValue="BSGRESP">
        <Decode>
          <TranslatedText xml:lang="en">Exploratory Bone Progression (2+2)</TranslatedText>
        </Decode>
      </CodeListItem>
      <CodeListItem CodedValue="CLINPROG">
        <Decode>
          <TranslatedText xml:lang="en">Disposition Clinical Progression</TranslatedText>
        </Decode>
      </CodeListItem>
      <CodeListItem CodedValue="RBC">
        <Decode>
          <TranslatedText xml:lang="en">ERYTHROCYTES</TranslatedText>
        </Decode>
      </CodeListItem>
      <CodeListItem CodedValue="SODIUM">
        <Decode>
          <TranslatedText xml:lang="en">SODIUM</TranslatedText>
        </Decode>
      </CodeListItem>
      <CodeListItem CodedValue="TESTO">
        <Decode>
          <TranslatedText xml:lang="en">TESTOSTERONE</TranslatedText>
        </Decode>
      </CodeListItem>
      <CodeListItem CodedValue="TESTOFR">
        <Decode>
          <TranslatedText xml:lang="en">TESTOSTERONE, FREE</TranslatedText>
        </Decode>
      </CodeListItem>
      <CodeListItem CodedValue="UREA">
        <Decode>
          <TranslatedText xml:lang="en">UREA</TranslatedText>
        </Decode>
      </CodeListItem>
      <CodeListItem CodedValue="WBC">
        <Decode>
          <TranslatedText xml:lang="en">LEUKOCYTES</TranslatedText>
        </Decode>
      </CodeListItem>
</CodeList>
    <MethodDef OID="MT.TRTSDT" Name="Method for TRTSDT" Type="Computation">
      <Description>
        <TranslatedText xml:lang="en">Date of first exposure to treatment, derived as the minimum of EXSTDTC from the EX SDTM dataset.</TranslatedText>
      </Description>
    </MethodDef>
    <MethodDef OID="MT.TRTEDT" Name="Method for TRTEDT" Type="Computation">
      <Description>
        <TranslatedText xml:lang="en">Date of last exposure to treatment, derived as the maximum of EXENDTC from the EX SDTM dataset.</TranslatedText>
      </Description>
    </MethodDef>
    <MethodDef OID="MT.TRTDURD" Name="Method for TRTDURD" Type="Computation">
      <Description>
        <TranslatedText xml:lang="en">Treatment duration in days, calculated as: TRTEDT - TRTSDT + 1.</TranslatedText>
      </Description>
    </MethodDef>
    <MethodDef OID="MT.ITTFL" Name="Method for ITTFL" Type="Computation">
      <Description>
        <TranslatedText xml:lang="en">Intent-to-treat population flag, set to Y for all randomized subjects.</TranslatedText>
      </Description>
    </MethodDef>
    <MethodDef OID="MT.SAFFL" Name="Method for SAFFL" Type="Computation">
      <Description>
        <TranslatedText xml:lang="en">Safety population flag, set to Y for all subjects who received at least one dose of study treatment.</TranslatedText>
      </Description>
    </MethodDef>
    <MethodDef OID="MT.ECOGBL" Name="Method for ECOGBL" Type="Computation">
      <Description>
        <TranslatedText xml:lang="en">Baseline ECOG performance status, derived as the first non-missing value from VS where VSTESTCD = 'ECOG' and VSBLFL = 'Y'.</TranslatedText>
      </Description>
    </MethodDef>
    <MethodDef OID="MT.MEASDISF" Name="Method for MEASDISF" Type="Computation">
      <Description>
        <TranslatedText xml:lang="en">Baseline measurable disease flag, set to Y if target lesions are present at baseline in the LS SDTM dataset.</TranslatedText>
      </Description>
    </MethodDef>
    <MethodDef OID="MT.PAINBL" Name="Method for PAINBL" Type="Computation">
      <Description>
        <TranslatedText xml:lang="en">Baseline pain flag from the 7 days ending on treatment start. Within each component and day, discordant duplicates are excluded. A component requires at least 5 valid days; PAINBL=Y for median pain intensity &gt;=2 or mean analgesic score &gt;=10, otherwise N.</TranslatedText>
      </Description>
    </MethodDef>
    <MethodDef OID="MT.RDI" Name="Method for RDI" Type="Computation">
      <Description>
        <TranslatedText xml:lang="en">Source relative dose intensity carried from SDTM.EX.EXTRINT for the qualifying primary IV antineoplastic when repeated subject values are internally consistent; no dose-intensity formula is reconstructed.</TranslatedText>
      </Description>
    </MethodDef>
    <MethodDef OID="MT.NCYCLE" Name="Method for NCYCLE" Type="Computation">
      <Description>
        <TranslatedText xml:lang="en">Count of distinct SDTM.EX.VISITNUM cycles with a positive administered IV dose (EXDOSE2&gt;0) for the qualifying randomized antineoplastic.</TranslatedText>
      </Description>
    </MethodDef>
    <MethodDef OID="MT.ANCNADIR" Name="Method for ANCNADIR" Type="Computation">
      <Description>
        <TranslatedText xml:lang="en">Minimum absolute neutrophil count (ANC) value observed post-baseline during Cycle 1.</TranslatedText>
      </Description>
    </MethodDef>
    <MethodDef OID="MT.AVAL_TTE" Name="Method for AVAL_TTE" Type="Computation">
      <Description>
        <TranslatedText xml:lang="en">Inclusive duration in days: ADT - STARTDT + 1. Missing or pre-origin dates are hard validation failures; durations are never floored to one day.</TranslatedText>
      </Description>
    </MethodDef>
    <MethodDef OID="MT.CNSR_TTE" Name="Method for CNSR_TTE" Type="Computation">
      <Description>
        <TranslatedText xml:lang="en">CNSR=0 for an eligible event under the parameter-specific rule and CNSR=1 otherwise. New anti-cancer therapy censors PFS only when it precedes the earliest eligible event.</TranslatedText>
      </Description>
    </MethodDef>
    <MethodDef OID="MT.DTHDT" Name="Method for DTHDT" Type="Computation"><Description><TranslatedText xml:lang="en">Earliest complete SDTM.AE.AEDTHDTC is preferred; otherwise the earliest DS death week is anchored to ADSL.RANDDT.</TranslatedText></Description></MethodDef><MethodDef OID="MT.LSTALVDT" Name="Method for LSTALVDT" Type="Computation"><Description><TranslatedText xml:lang="en">Maximum dated observed contact or assessment across DS, EX, VS, LB, LS, PN, and SV, capped at DTHDT for deceased subjects.</TranslatedText></Description></MethodDef><MethodDef OID="MT.ECOGBLIF" Name="Method for ECOGBLIF" Type="Computation"><Description><TranslatedText xml:lang="en">Set to N because observed baseline ECOG is not imputed.</TranslatedText></Description></MethodDef><MethodDef OID="MT.PSABLIF" Name="Method for PSABLIF" Type="Computation"><Description><TranslatedText xml:lang="en">Set to N because observed baseline PSA is not imputed.</TranslatedText></Description></MethodDef><MethodDef OID="MT.ALPBLIF" Name="Method for ALPBLIF" Type="Computation"><Description><TranslatedText xml:lang="en">Set to N because observed baseline alkaline phosphatase is not imputed.</TranslatedText></Description></MethodDef><MethodDef OID="MT.HGBBLIF" Name="Method for HGBBLIF" Type="Computation"><Description><TranslatedText xml:lang="en">Set to N because observed baseline hemoglobin is not imputed.</TranslatedText></Description></MethodDef><MethodDef OID="MT.ALBBLIF" Name="Method for ALBBLIF" Type="Computation"><Description><TranslatedText xml:lang="en">Blank because baseline albumin is unavailable in the source release and is not imputed.</TranslatedText></Description></MethodDef><MethodDef OID="MT.LDHBLIF" Name="Method for LDHBLIF" Type="Computation"><Description><TranslatedText xml:lang="en">Blank because baseline lactate dehydrogenase is unavailable in the source release and is not imputed.</TranslatedText></Description></MethodDef><MethodDef OID="MT.ADEX_AVAL" Name="Method for ADEX_AVAL" Type="Computation"><Description><TranslatedText xml:lang="en">Parameter-specific numeric value from qualifying primary IV SDTM.EX records: initial EXPDOSE, cumulative EXCUMD2, positive administered-cycle count, delay/reduction counts, consistent source EXTRINT, cycle EXDOSE2, or adjustment flag.</TranslatedText></Description></MethodDef><MethodDef OID="MT.ADEX_AVALC" Name="Method for ADEX_AVALC" Type="Computation"><Description><TranslatedText xml:lang="en">Character representation or category corresponding to ADEX.AVAL and PARAMCD.</TranslatedText></Description></MethodDef><MethodDef OID="MT.ADEX_PARAMN" Name="Method for ADEX_PARAMN" Type="Computation"><Description><TranslatedText xml:lang="en">Numeric ADEX parameter ordering derived from ADEX.PARAMCD.</TranslatedText></Description></MethodDef><MethodDef OID="MT.ADEX_AVISITN" Name="Method for ADEX_AVISITN" Type="Computation"><Description><TranslatedText xml:lang="en">Cycle number from SDTM.EX.VISITNUM; summary records labelled ALL CYCLES are assigned AVISITN=0.</TranslatedText></Description></MethodDef><MethodDef OID="MT.ADAE_ATOXGR" Name="Method for ADAE_ATOXGR" Type="Computation"><Description><TranslatedText xml:lang="en">Numeric adverse-event toxicity grade derived from SDTM.AE toxicity grade or severity source fields.</TranslatedText></Description></MethodDef><MethodDef OID="MT.ADLB_AVAL" Name="Method for ADLB_AVAL" Type="Computation"><Description><TranslatedText xml:lang="en">Numeric laboratory analysis value derived from SDTM.LB.LBSTRESN after parameter-specific unit standardization.</TranslatedText></Description></MethodDef><MethodDef OID="MT.ADLB_AVALC" Name="Method for ADLB_AVALC" Type="Computation"><Description><TranslatedText xml:lang="en">Character laboratory analysis value derived from SDTM.LB.LBSTRESC.</TranslatedText></Description></MethodDef><MethodDef OID="MT.ADLB_ATOXGR" Name="Method for ADLB_ATOXGR" Type="Computation"><Description><TranslatedText xml:lang="en">Numeric carry-forward of SDTM.LB.LBTOXGR. No independent CTCAE grading algorithm is applied.</TranslatedText></Description></MethodDef><MethodDef OID="MT.ADLB_BASE" Name="Method for ADLB_BASE" Type="Computation"><Description><TranslatedText xml:lang="en">Numeric value from the deterministic SDTM.LB.LBBLFL=Y record selected by date and LBSEQ within subject and parameter.</TranslatedText></Description></MethodDef><MethodDef OID="MT.ADLB_BASEC" Name="Method for ADLB_BASEC" Type="Computation"><Description><TranslatedText xml:lang="en">Character value from the same deterministic SDTM.LB.LBBLFL=Y record used for BASE.</TranslatedText></Description></MethodDef><MethodDef OID="MT.ADLB_CHG" Name="Method for ADLB_CHG" Type="Computation"><Description><TranslatedText xml:lang="en">Change from baseline calculated as ADLB.AVAL minus ADLB.BASE.</TranslatedText></Description></MethodDef><MethodDef OID="MT.ADLB_PCHG" Name="Method for ADLB_PCHG" Type="Computation"><Description><TranslatedText xml:lang="en">Percent change from baseline calculated as 100 times ADLB.CHG divided by ADLB.BASE.</TranslatedText></Description></MethodDef><MethodDef OID="MT.ADLB_ABLFL" Name="Method for ADLB_ABLFL" Type="Computation"><Description><TranslatedText xml:lang="en">Y only on the deterministic SDTM.LB record selected as baseline from LBBLFL=Y; null otherwise.</TranslatedText></Description></MethodDef><MethodDef OID="MT.ADLB_ADT" Name="Method for ADLB_ADT" Type="Computation"><Description><TranslatedText xml:lang="en">Analysis date derived from SDTM.LB.LBDTC.</TranslatedText></Description></MethodDef><MethodDef OID="MT.ADRS_AVALC" Name="Method for ADRS_AVALC" Type="Computation"><Description><TranslatedText xml:lang="en">Parameter-specific response result. OVRLRESP is lesion-derived RECIST v1.0; BESTRESP/OBJRESP use confirmed objective-response rules without an intervening PD; PSPROG is reconstructed with prior nadir; BSGRESP is exploratory; CLINPROG remains separately typed.</TranslatedText></Description></MethodDef><MethodDef OID="MT.ADRS_AVAL" Name="Method for ADRS_AVAL" Type="Computation"><Description><TranslatedText xml:lang="en">Numeric category mapped from the parameter-specific ADRS.AVALC value.</TranslatedText></Description></MethodDef><MethodDef OID="MT.ADTTE_ITTFL" Name="Method for ADTTE_ITTFL" Type="Computation"><Description><TranslatedText xml:lang="en">Intent-to-treat flag inherited from ADSL.ITTFL.</TranslatedText></Description></MethodDef><MethodDef OID="MT.ADTTE_SAFFL" Name="Method for ADTTE_SAFFL" Type="Computation"><Description><TranslatedText xml:lang="en">Safety population flag inherited from ADSL.SAFFL.</TranslatedText></Description></MethodDef><MethodDef OID="MT.ADTTE_PARAMN" Name="Method for ADTTE_PARAMN" Type="Computation"><Description><TranslatedText xml:lang="en">Numeric ADTTE parameter ordering derived from ADTTE.PARAMCD.</TranslatedText></Description></MethodDef><MethodDef OID="MT.ADTTE_PARCAT1" Name="Method for ADTTE_PARCAT1" Type="Computation"><Description><TranslatedText xml:lang="en">Time-to-event parameter category derived from ADTTE.PARAMCD.</TranslatedText></Description></MethodDef><MethodDef OID="MT.ADTTE_AVALU" Name="Method for ADTTE_AVALU" Type="Computation"><Description><TranslatedText xml:lang="en">Time-to-event unit assigned by ADTTE parameter derivation.</TranslatedText></Description></MethodDef><MethodDef OID="MT.ADCM_ASTDT" Name="Method for ADCM_ASTDT" Type="Computation"><Description><TranslatedText xml:lang="en">Analysis medication start date derived from SDTM.CM.CMSTDTC.</TranslatedText></Description></MethodDef><MethodDef OID="MT.ADCM_AENDT" Name="Method for ADCM_AENDT" Type="Computation"><Description><TranslatedText xml:lang="en">Analysis medication end date derived from SDTM.CM.CMENDTC.</TranslatedText></Description></MethodDef><MethodDef OID="MT.ADCM_ASTDY" Name="Method for ADCM_ASTDY" Type="Computation"><Description><TranslatedText xml:lang="en">Analysis medication start relative day derived from ADCM.ASTDT and ADSL.TRTSDT.</TranslatedText></Description></MethodDef><MethodDef OID="MT.TRT01A" Name="Method for TRT01A" Type="Computation"><Description><TranslatedText xml:lang="en">Actual treatment is derived from administered qualifying primary IV antineoplastic in SDTM.EX (cabazitaxel/XRP6258 or mitoxantrone). If no qualifying IV record exists, planned treatment is retained; TRT01AN maps CbzP=1 and MP=2.</TranslatedText></Description></MethodDef><MethodDef OID="MT.ADLB_PARCAT1" Name="Method for ADLB_PARCAT1" Type="Computation"><Description><TranslatedText xml:lang="en">PARCAT1 is assigned TUMOR MARKER for PARAMCD=PSA; otherwise it is carried from SDTM.LB.LBCAT.</TranslatedText></Description></MethodDef><MethodDef OID="MT.ADTTE_ADT" Name="Method for ADTTE_ADT" Type="Computation"><Description><TranslatedText xml:lang="en">OS, PFS, TTPSA, TTUMOR, and TTPAIN start at randomization; TTSAE starts at first dose. All are bounded by the analysis cutoff. OS uses eligible death; PFS uses the earliest eligible lesion-derived RECIST, reconstructed PSA, governed F-042 pain, or death component unless earlier NACT censors; TTPSA, TTUMOR, and TTPAIN use their typed components; TTSAE uses the first treatment-emergent serious AE through the earliest of last known alive, 30 days after last dose, and the cutoff. Censor dates are parameter-specific and may not precede STARTDT.</TranslatedText></Description></MethodDef><def:CommentDef OID="COM.CIAESEQ">
      <Description>
        <TranslatedText xml:lang="en">Sequence index increments when chronological gap between myeloid AEs is &gt; 3 days, representing separate clinical episodes.</TranslatedText>
      </Description>
    </def:CommentDef>
    <def:CommentDef OID="COM.ANCNADIR">
      <Description>
        <TranslatedText xml:lang="en">Calculates minimum post-baseline ANC value per cycle for individual patients to model continuous dose-toxicity relationships.</TranslatedText>
      </Description>
    </def:CommentDef>
    <def:CommentDef OID="COM.NACTDT">
      <Description>
        <TranslatedText xml:lang="en">Identifies the start date of any post-baseline systemic anti-cancer therapy, acting as the primary censor-date boundary for PFS calculations.</TranslatedText>
      </Description>
    </def:CommentDef>
    <arm:AnalysisResultDisplays><arm:ResultDisplay OID="RD.EFFICACY.SURVIVAL" Name="F-11-1/F-11-2 Survival Analyses"><Description><TranslatedText xml:lang="en">Controlled comparative simulation analyses of OS and PFS. MP uses real ADTTE; CbzP is reconstructed from published Kaplan-Meier curves using the Guyot method and remains TFL-only. Stratified Cox and log-rank methods follow SAP v4.0 sections 9 and 10.1. Results are non-confirmatory and are not submission evidence. Simulation boundary: CbzP is synthetic/reconstructed and TFL-only; comparative results are non-confirmatory and are not submission evidence.</TranslatedText></Description><arm:AnalysisResult OID="AR.OS.COX" ParameterOID="IT.ADTTE.PARAMCD" AnalysisReason="PRE-SPECIFIED IN SAP" AnalysisPurpose="PRIMARY OUTCOME MEASURE"><Description><TranslatedText xml:lang="en">Overall Survival comparative demonstration Cox HR and stratified log-rank p-value. MP is real; CbzP is Guyot-reconstructed and TFL-only.</TranslatedText></Description><arm:AnalysisDatasets><arm:AnalysisDataset ItemGroupOID="IG.ADTTE"><def:WhereClauseRef WhereClauseOID="WC.ADTTE.PARAMCD.EQ.OS"/><arm:AnalysisVariable ItemOID="IT.ADTTE.AVAL"/><arm:AnalysisVariable ItemOID="IT.ADTTE.CNSR"/><arm:AnalysisVariable ItemOID="IT.ADTTE.TRT01P"/></arm:AnalysisDataset><arm:AnalysisDataset ItemGroupOID="IG.ADSL"><arm:AnalysisVariable ItemOID="IT.ADSL.ECOGBL"/><arm:AnalysisVariable ItemOID="IT.ADSL.MEASDISF"/><arm:AnalysisVariable ItemOID="IT.ADSL.TRT01P"/></arm:AnalysisDataset></arm:AnalysisDatasets><arm:ProgrammingCode Context="R 4.6.0 (survival; controlled TFL)"><arm:Code>tfl_generation.R binds real MP ADTTE to reconstructed CbzP ADTTE for PARAMCD='OS'; compute_tte_stats applies coxph and survdiff stratified by ECOGBLGRP and MEASDISF.</arm:Code></arm:ProgrammingCode></arm:AnalysisResult><arm:AnalysisResult OID="AR.PFS.COX" ParameterOID="IT.ADTTE.PARAMCD" AnalysisReason="PRE-SPECIFIED IN SAP" AnalysisPurpose="SECONDARY OUTCOME MEASURE"><Description><TranslatedText xml:lang="en">Progression-Free Survival comparative demonstration Cox HR and stratified log-rank p-value. MP is real; CbzP is Guyot-reconstructed and TFL-only.</TranslatedText></Description><arm:AnalysisDatasets><arm:AnalysisDataset ItemGroupOID="IG.ADTTE"><def:WhereClauseRef WhereClauseOID="WC.ADTTE.PARAMCD.EQ.PFS"/><arm:AnalysisVariable ItemOID="IT.ADTTE.AVAL"/><arm:AnalysisVariable ItemOID="IT.ADTTE.CNSR"/><arm:AnalysisVariable ItemOID="IT.ADTTE.TRT01P"/></arm:AnalysisDataset><arm:AnalysisDataset ItemGroupOID="IG.ADSL"><arm:AnalysisVariable ItemOID="IT.ADSL.ECOGBL"/><arm:AnalysisVariable ItemOID="IT.ADSL.MEASDISF"/><arm:AnalysisVariable ItemOID="IT.ADSL.TRT01P"/></arm:AnalysisDataset></arm:AnalysisDatasets><arm:ProgrammingCode Context="R 4.6.0 (survival; controlled TFL)"><arm:Code>tfl_generation.R binds real MP ADTTE to reconstructed CbzP ADTTE for PARAMCD='PFS'; compute_tte_stats applies coxph and survdiff stratified by ECOGBLGRP and MEASDISF.</arm:Code></arm:ProgrammingCode></arm:AnalysisResult></arm:ResultDisplay><arm:ResultDisplay OID="RD.EFFICACY.SECONDARY" Name="T-11-6/T-11-7/T-11-8 Secondary TTE Analyses"><Description><TranslatedText xml:lang="en">ITT analyses of TTPSA, TTUMOR, and TTPAIN under SAP v4.0 sections 10.2-10.4. MP uses real ADTTE. CbzP secondary endpoints are PH-scaled synthetic TFL-only records and are circular by construction; comparative estimates are descriptive and non-confirmatory. Simulation boundary: CbzP is synthetic/reconstructed and TFL-only; comparative results are non-confirmatory and are not submission evidence.</TranslatedText></Description><arm:AnalysisResult OID="AR.TTPSA.COX" ParameterOID="IT.ADTTE.PARAMCD" AnalysisReason="PRE-SPECIFIED IN SAP" AnalysisPurpose="SECONDARY OUTCOME MEASURE"><Description><TranslatedText xml:lang="en">Time to PSA Progression - ITT comparative demonstration Cox HR and log-rank p-value. MP is real; CbzP is a PH-scaled synthetic TFL-only comparator and the comparison is non-confirmatory.</TranslatedText></Description><arm:AnalysisDatasets><arm:AnalysisDataset ItemGroupOID="IG.ADTTE"><def:WhereClauseRef WhereClauseOID="WC.ADTTE.PARAMCD.EQ.TTPSA"/><arm:AnalysisVariable ItemOID="IT.ADTTE.AVAL"/><arm:AnalysisVariable ItemOID="IT.ADTTE.CNSR"/><arm:AnalysisVariable ItemOID="IT.ADTTE.TRT01P"/></arm:AnalysisDataset></arm:AnalysisDatasets><arm:ProgrammingCode Context="R 4.6.0 (survival; controlled TFL)"><arm:Code>tfl_generation.R binds real MP ADTTE to PH-scaled synthetic CbzP ADTTE for PARAMCD='TTPSA', then compute_tte_stats applies Cox and log-rank methods. Synthetic secondary-endpoint comparisons are circular by construction.</arm:Code></arm:ProgrammingCode></arm:AnalysisResult><arm:AnalysisResult OID="AR.TTUMOR.COX" ParameterOID="IT.ADTTE.PARAMCD" AnalysisReason="PRE-SPECIFIED IN SAP" AnalysisPurpose="SECONDARY OUTCOME MEASURE"><Description><TranslatedText xml:lang="en">Time to Tumor Progression - ITT comparative demonstration Cox HR and log-rank p-value. MP is real; CbzP is a PH-scaled synthetic TFL-only comparator and the comparison is non-confirmatory.</TranslatedText></Description><arm:AnalysisDatasets><arm:AnalysisDataset ItemGroupOID="IG.ADTTE"><def:WhereClauseRef WhereClauseOID="WC.ADTTE.PARAMCD.EQ.TTUMOR"/><arm:AnalysisVariable ItemOID="IT.ADTTE.AVAL"/><arm:AnalysisVariable ItemOID="IT.ADTTE.CNSR"/><arm:AnalysisVariable ItemOID="IT.ADTTE.TRT01P"/></arm:AnalysisDataset></arm:AnalysisDatasets><arm:ProgrammingCode Context="R 4.6.0 (survival; controlled TFL)"><arm:Code>tfl_generation.R binds real MP ADTTE to PH-scaled synthetic CbzP ADTTE for PARAMCD='TTUMOR', then compute_tte_stats applies Cox and log-rank methods. Synthetic secondary-endpoint comparisons are circular by construction.</arm:Code></arm:ProgrammingCode></arm:AnalysisResult><arm:AnalysisResult OID="AR.TTPAIN.COX" ParameterOID="IT.ADTTE.PARAMCD" AnalysisReason="PRE-SPECIFIED IN SAP" AnalysisPurpose="SECONDARY OUTCOME MEASURE"><Description><TranslatedText xml:lang="en">Time to Pain Progression - ITT comparative demonstration Cox HR and log-rank p-value. MP is real; CbzP is a PH-scaled synthetic TFL-only comparator and the comparison is non-confirmatory.</TranslatedText></Description><arm:AnalysisDatasets><arm:AnalysisDataset ItemGroupOID="IG.ADTTE"><def:WhereClauseRef WhereClauseOID="WC.ADTTE.PARAMCD.EQ.TTPAIN"/><arm:AnalysisVariable ItemOID="IT.ADTTE.AVAL"/><arm:AnalysisVariable ItemOID="IT.ADTTE.CNSR"/><arm:AnalysisVariable ItemOID="IT.ADTTE.TRT01P"/></arm:AnalysisDataset></arm:AnalysisDatasets><arm:ProgrammingCode Context="R 4.6.0 (survival; controlled TFL)"><arm:Code>tfl_generation.R binds real MP ADTTE to PH-scaled synthetic CbzP ADTTE, then compute_tte_stats applies Cox and log-rank methods. Synthetic secondary-endpoint comparisons are circular by construction.</arm:Code></arm:ProgrammingCode></arm:AnalysisResult></arm:ResultDisplay><arm:ResultDisplay OID="RD.SAFETY.TEAE" Name="T-20-1/T-20-2 Treatment-Emergent Adverse Event Summary"><Description><TranslatedText xml:lang="en">Incidence of treatment-emergent adverse events (TRTEMFL='Y') by MedDRA preferred term and treatment, per SAP v4.0 §7.2 (table T-20). Simulation boundary: CbzP is synthetic/reconstructed and TFL-only; comparative results are non-confirmatory and are not submission evidence.</TranslatedText></Description><arm:AnalysisResult OID="AR.TEAE.INCIDENCE" ParameterOID="IT.ADAE.AEDECOD" AnalysisReason="PRE-SPECIFIED IN SAP" AnalysisPurpose="SAFETY OUTCOME MEASURE"><Description><TranslatedText xml:lang="en">TEAE incidence (subjects with at least one event) by preferred term, CbzP vs MP.</TranslatedText></Description><arm:AnalysisDatasets><arm:AnalysisDataset ItemGroupOID="IG.ADAE"><def:WhereClauseRef WhereClauseOID="WC.ADAE.TRTEMFL.EQ.Y"/><arm:AnalysisVariable ItemOID="IT.ADAE.AEDECOD"/><arm:AnalysisVariable ItemOID="IT.ADAE.TRTA"/></arm:AnalysisDataset></arm:AnalysisDatasets><arm:ProgrammingCode Context="R 4.6.0 (dplyr)"><arm:Code>adae[TRTEMFL=='Y'] |&gt; distinct(USUBJID, TRTA, AEDECOD) |&gt; count(TRTA, AEDECOD)</arm:Code></arm:ProgrammingCode></arm:AnalysisResult></arm:ResultDisplay>
<arm:ResultDisplay OID="RD.EFFICACY.SUBGROUP" Name="Prognostic Subgroup Forest — Overall Survival (figure F-12-1)"><Description><TranslatedText xml:lang="en">Forest plot of Cox hazard ratios for Overall Survival (CbzP vs MP) within pre-specified prognostic subgroups (age group, baseline ECOG, measurable disease, visceral metastasis, baseline pain, prior docetaxel progression), per SAP v4.0 §8.2; rendered as figure F-12-1. Simulation boundary: CbzP is synthetic/reconstructed and TFL-only; comparative results are non-confirmatory and are not submission evidence.</TranslatedText></Description><arm:AnalysisResult OID="AR.OS.SUBGROUP" ParameterOID="IT.ADTTE.PARAMCD" AnalysisReason="PRE-SPECIFIED IN SAP" AnalysisPurpose="EXPLORATORY OUTCOME MEASURE"><Description><TranslatedText xml:lang="en">Subgroup hazard ratios (95% CI) for OS by prognostic factor, CbzP vs MP — one Cox model per subgroup level.</TranslatedText></Description><arm:AnalysisDatasets><arm:AnalysisDataset ItemGroupOID="IG.ADTTE"><def:WhereClauseRef WhereClauseOID="WC.ADTTE.PARAMCD.EQ.OS"/><arm:AnalysisVariable ItemOID="IT.ADTTE.AVAL"/><arm:AnalysisVariable ItemOID="IT.ADTTE.CNSR"/><arm:AnalysisVariable ItemOID="IT.ADTTE.TRT01P"/></arm:AnalysisDataset><arm:AnalysisDataset ItemGroupOID="IG.ADSL"><arm:AnalysisVariable ItemOID="IT.ADSL.AGEGR1"/><arm:AnalysisVariable ItemOID="IT.ADSL.ECOGBL"/><arm:AnalysisVariable ItemOID="IT.ADSL.MEASDISF"/><arm:AnalysisVariable ItemOID="IT.ADSL.VISCFL"/><arm:AnalysisVariable ItemOID="IT.ADSL.PAINBL"/><arm:AnalysisVariable ItemOID="IT.ADSL.DOCPROG"/></arm:AnalysisDataset></arm:AnalysisDatasets><arm:ProgrammingCode Context="R 4.6.0 (survival::coxph)"><arm:Code>coxph(Surv(AVAL, 1 - CNSR) ~ (TRT01P == 'CbzP'), data = adtte[PARAMCD=='OS']) fit within each ADSL prognostic subgroup level</arm:Code></arm:ProgrammingCode></arm:AnalysisResult></arm:ResultDisplay>
<arm:ResultDisplay OID="RD.EFFICACY.PSA.RESPONSE" Name="PSA Best Percentage Change — Waterfall (figure F-13-1)"><Description><TranslatedText xml:lang="en">Per-subject best (minimum) percentage change in PSA from baseline, CbzP vs MP, against the 50% PSA-response threshold; rendered as figure F-13-1. Simulation boundary: CbzP is synthetic/reconstructed and TFL-only; comparative results are non-confirmatory and are not submission evidence.</TranslatedText></Description><arm:AnalysisResult OID="AR.PSA.BESTPCHG" ParameterOID="IT.ADLB.PARAMCD" AnalysisReason="PRE-SPECIFIED IN SAP" AnalysisPurpose="SECONDARY OUTCOME MEASURE"><Description><TranslatedText xml:lang="en">Best percentage change from baseline in PSA per subject (minimum PCHG over post-baseline records), by treatment.</TranslatedText></Description><arm:AnalysisDatasets><arm:AnalysisDataset ItemGroupOID="IG.ADLB"><def:WhereClauseRef WhereClauseOID="WC.ADLB.PARAMCD.EQ.PSA"/><arm:AnalysisVariable ItemOID="IT.ADLB.PCHG"/><arm:AnalysisVariable ItemOID="IT.ADLB.TRT01P"/></arm:AnalysisDataset></arm:AnalysisDatasets><arm:ProgrammingCode Context="R 4.6.0 (dplyr)"><arm:Code>adlb[PARAMCD=='PSA'] grouped by USUBJID, best_pchg = min(PCHG); classified against 50% response threshold</arm:Code></arm:ProgrammingCode></arm:AnalysisResult></arm:ResultDisplay>
<arm:ResultDisplay OID="RD.SAFETY.EXPOSURE" Name="Treatment Exposure Duration — Swimmer (figure F-14-1)"><Description><TranslatedText xml:lang="en">Per-subject treatment exposure duration (months) with death events and cycles received, by arm; rendered as figure F-14-1. Simulation boundary: CbzP is synthetic/reconstructed and TFL-only; comparative results are non-confirmatory and are not submission evidence.</TranslatedText></Description><arm:AnalysisResult OID="AR.TRTDUR.EXPOSURE" ParameterOID="IT.ADEX.PARAMCD" AnalysisReason="PRE-SPECIFIED IN SAP" AnalysisPurpose="SAFETY OUTCOME MEASURE"><Description><TranslatedText xml:lang="en">Treatment duration (ADSL.TRTDURD) and cycles received (ADEX NCYCLE) per subject, with death-event marker, by treatment.</TranslatedText></Description><arm:AnalysisDatasets><arm:AnalysisDataset ItemGroupOID="IG.ADSL"><arm:AnalysisVariable ItemOID="IT.ADSL.TRTDURD"/><arm:AnalysisVariable ItemOID="IT.ADSL.DTHFL"/><arm:AnalysisVariable ItemOID="IT.ADSL.TRT01P"/></arm:AnalysisDataset><arm:AnalysisDataset ItemGroupOID="IG.ADEX"><def:WhereClauseRef WhereClauseOID="WC.ADEX.PARAMCD.EQ.NCYCLE"/><arm:AnalysisVariable ItemOID="IT.ADEX.AVAL"/></arm:AnalysisDataset></arm:AnalysisDatasets><arm:ProgrammingCode Context="R 4.6.0 (ggplot2)"><arm:Code>duration_months = ADSL.TRTDURD / 30.4375; cycles from ADEX[PARAMCD=='NCYCLE']; death marker = (DTHFL == 'Y')</arm:Code></arm:ProgrammingCode></arm:AnalysisResult></arm:ResultDisplay>
<arm:ResultDisplay OID="RD.OPTIMUS.ER" Name="Project Optimus Exposure-Response Scatter (figure F-17-1)"><Description><TranslatedText xml:lang="en">Project Optimus exposure-response: Cycle-1 ANC nadir versus relative dose intensity (RDI) by arm, with LOWESS smoothing and the Grade-4 neutropenia threshold; rendered as figure F-17-1, per SAP v4.0 §10 (Project Optimus) and ADRG §3. Simulation boundary: CbzP is synthetic/reconstructed and TFL-only; comparative results are non-confirmatory and are not submission evidence.</TranslatedText></Description><arm:AnalysisResult OID="AR.OPTIMUS.RDI.ANC" ParameterOID="IT.ADEX.PARAMCD" AnalysisReason="PRE-SPECIFIED IN SAP" AnalysisPurpose="EXPLORATORY OUTCOME MEASURE"><Description><TranslatedText xml:lang="en">ANC nadir (ADLB ANCNADIR, Cycle 1) modelled against relative dose intensity (ADEX RDI, all cycles) by treatment, LOWESS local regression.</TranslatedText></Description><arm:AnalysisDatasets><arm:AnalysisDataset ItemGroupOID="IG.ADEX"><def:WhereClauseRef WhereClauseOID="WC.ADEX.PARAMCD.EQ.RDI"/><arm:AnalysisVariable ItemOID="IT.ADEX.AVAL"/><arm:AnalysisVariable ItemOID="IT.ADEX.TRT01P"/></arm:AnalysisDataset><arm:AnalysisDataset ItemGroupOID="IG.ADLB"><def:WhereClauseRef WhereClauseOID="WC.ADLB.PARAMCD.EQ.ANCNADIR"/><arm:AnalysisVariable ItemOID="IT.ADLB.AVAL"/></arm:AnalysisDataset></arm:AnalysisDatasets><arm:ProgrammingCode Context="R 4.6.0 (ggplot2::geom_smooth loess)"><arm:Code>loess(ANC ~ RDI) by TRT01P; RDI = ADEX[PARAMCD=='RDI', AVISIT=='ALL CYCLES'].AVAL; ANC = ADLB[PARAMCD=='ANCNADIR', AVISIT=='CYCLE 1'].AVAL</arm:Code></arm:ProgrammingCode></arm:AnalysisResult></arm:ResultDisplay>
<arm:ResultDisplay OID="RD.SAFETY.LABSHIFT" Name="T-21-1/T-21-2 Laboratory Toxicity-Grade Shift"><Description><TranslatedText xml:lang="en">Shift in source-carried laboratory toxicity grade (ATOXGR, carried from SDTM.LB.LBTOXGR for real MP data) from baseline to worst post-baseline analysis record; no independent CTCAE re-grading algorithm is applied. Rendered as T-21-1/T-21-2. Simulation boundary: CbzP is synthetic/reconstructed and TFL-only; comparative results are non-confirmatory and are not submission evidence.</TranslatedText></Description><arm:AnalysisResult OID="AR.LAB.SHIFT" ParameterOID="IT.ADLB.PARAMCD" AnalysisReason="PRE-SPECIFIED IN SAP" AnalysisPurpose="SAFETY OUTCOME MEASURE"><Description><TranslatedText xml:lang="en">Cross-tabulation of baseline (ABLFL='Y') versus worst post-baseline (missing ABLFL, ANL01FL='Y') ATOXGR per subject and parameter.</TranslatedText></Description><arm:AnalysisDatasets><arm:AnalysisDataset ItemGroupOID="IG.ADLB"><arm:AnalysisVariable ItemOID="IT.ADLB.PARAMCD"/><arm:AnalysisVariable ItemOID="IT.ADLB.ATOXGR"/><arm:AnalysisVariable ItemOID="IT.ADLB.ABLFL"/><arm:AnalysisVariable ItemOID="IT.ADLB.ANL01FL"/></arm:AnalysisDataset></arm:AnalysisDatasets><arm:ProgrammingCode Context="R 4.6.0 (dplyr)"><arm:Code>baseline ATOXGR (ABLFL=='Y') joined to worst post-baseline ATOXGR (is.na(ABLFL), ANL01FL=='Y') per USUBJID and PARAMCD (NEUT, PSA)</arm:Code></arm:ProgrammingCode></arm:AnalysisResult></arm:ResultDisplay><arm:ResultDisplay OID="RD.EFFICACY.RESPONSE" Name="T-11-3/T-11-4/T-11-5/T-11-8b Response Analyses"><Description><TranslatedText xml:lang="en">PSA response, objective response, pain response, and the response-evaluable ORR sensitivity under SAP v4.0 sections 10.2-10.4. Pain response uses staged PN/SV plus ADSL and is subject-level reconciled by the F042_PAIN_RESPONSE gate. Simulation boundary: CbzP is synthetic/reconstructed and TFL-only; comparative results are non-confirmatory and are not submission evidence.</TranslatedText></Description><arm:AnalysisResult OID="AR.PSA.RESPONSE" ParameterOID="IT.ADRS.PARAMCD" AnalysisReason="PRE-SPECIFIED IN SAP" AnalysisPurpose="SECONDARY OUTCOME MEASURE"><Description><TranslatedText xml:lang="en">T-11-3 PSA response rate using observed baseline PSA eligibility.</TranslatedText></Description><arm:AnalysisDatasets><arm:AnalysisDataset ItemGroupOID="IG.ADRS"><def:WhereClauseRef WhereClauseOID="WC.ADRS.PARAMCD.EQ.PSARESP"/><arm:AnalysisVariable ItemOID="IT.ADRS.AVALC"/><arm:AnalysisVariable ItemOID="IT.ADRS.TRT01P"/></arm:AnalysisDataset><arm:AnalysisDataset ItemGroupOID="IG.ADSL"><arm:AnalysisVariable ItemOID="IT.ADSL.PSABL"/><arm:AnalysisVariable ItemOID="IT.ADSL.PSABLIF"/><arm:AnalysisVariable ItemOID="IT.ADSL.TRT01P"/></arm:AnalysisDataset></arm:AnalysisDatasets><arm:ProgrammingCode Context="R 4.6.0 (controlled reporting program)"><arm:Code>tfl_generation.R filters ADRS PSARESP to observed baseline PSA &gt;=20 and reports responders by treatment.</arm:Code></arm:ProgrammingCode></arm:AnalysisResult><arm:AnalysisResult OID="AR.OBJECTIVE.RESPONSE" ParameterOID="IT.ADRS.PARAMCD" AnalysisReason="PRE-SPECIFIED IN SAP" AnalysisPurpose="SECONDARY OUTCOME MEASURE"><Description><TranslatedText xml:lang="en">T-11-4 confirmed objective response rate using the baseline measurable-disease denominator.</TranslatedText></Description><arm:AnalysisDatasets><arm:AnalysisDataset ItemGroupOID="IG.ADRS"><def:WhereClauseRef WhereClauseOID="WC.ADRS.PARAMCD.EQ.OBJRESP"/><arm:AnalysisVariable ItemOID="IT.ADRS.AVALC"/><arm:AnalysisVariable ItemOID="IT.ADRS.TRT01P"/></arm:AnalysisDataset><arm:AnalysisDataset ItemGroupOID="IG.ADSL"><arm:AnalysisVariable ItemOID="IT.ADSL.MEASDISF"/><arm:AnalysisVariable ItemOID="IT.ADSL.TRT01P"/></arm:AnalysisDataset></arm:AnalysisDatasets><arm:ProgrammingCode Context="R 4.6.0 (controlled reporting program)"><arm:Code>tfl_generation.R left-joins confirmed ADRS OBJRESP to the ADSL baseline measurable-disease population and reports responders.</arm:Code></arm:ProgrammingCode></arm:AnalysisResult><arm:AnalysisResult OID="AR.PAIN.RESPONSE" ParameterOID="IT.ADSL.PAINBL" AnalysisReason="PRE-SPECIFIED IN SAP" AnalysisPurpose="SECONDARY OUTCOME MEASURE"><Description><TranslatedText xml:lang="en">T-11-5 pain response rate. The analysis uses response-evaluable subjects from staged PN/SV; ADSL supplies subject and treatment attributes. Exact SAS/R subject-level parity is required.</TranslatedText></Description><arm:AnalysisDatasets><arm:AnalysisDataset ItemGroupOID="IG.ADSL"><arm:AnalysisVariable ItemOID="IT.ADSL.USUBJID"/><arm:AnalysisVariable ItemOID="IT.ADSL.TRT01P"/><arm:AnalysisVariable ItemOID="IT.ADSL.ITTFL"/><arm:AnalysisVariable ItemOID="IT.ADSL.PAINBL"/></arm:AnalysisDataset></arm:AnalysisDatasets><arm:ProgrammingCode Context="R 4.6.0 (controlled reporting program)"><arm:Code>f042_provisional_pain_derivation.R evaluates initial and confirming PN/SV visits; cross_lang_audit.R requires F042_PAIN_RESPONSE exact SAS/R subject, event, confirmation, component, and source-date parity.</arm:Code></arm:ProgrammingCode></arm:AnalysisResult><arm:AnalysisResult OID="AR.OBJECTIVE.RESPONSE.EVALUABLE" ParameterOID="IT.ADRS.PARAMCD" AnalysisReason="PRE-SPECIFIED IN SAP" AnalysisPurpose="EXPLORATORY OUTCOME MEASURE"><Description><TranslatedText xml:lang="en">T-11-8b response-evaluable objective response sensitivity.</TranslatedText></Description><arm:AnalysisDatasets><arm:AnalysisDataset ItemGroupOID="IG.ADRS"><def:WhereClauseRef WhereClauseOID="WC.ADRS.PARAMCD.EQ.OBJRESP"/><arm:AnalysisVariable ItemOID="IT.ADRS.AVALC"/><arm:AnalysisVariable ItemOID="IT.ADRS.TRT01P"/></arm:AnalysisDataset></arm:AnalysisDatasets><arm:ProgrammingCode Context="R 4.6.0 (controlled reporting program)"><arm:Code>tfl_generation.R reports confirmed ADRS OBJRESP among subjects with an evaluable OBJRESP record.</arm:Code></arm:ProgrammingCode></arm:AnalysisResult></arm:ResultDisplay><arm:ResultDisplay OID="RD.OPTIMUS.TABLES" Name="T-17-1/T-17-2/T-17-4 Project Optimus Tables"><Description><TranslatedText xml:lang="en">Controlled RDI distribution, ANC nadir by G-CSF usage, and descriptive benefit-risk summaries for T-17-1, T-17-2, and T-17-4. Simulation boundary: CbzP is synthetic/reconstructed and TFL-only; comparative results are non-confirmatory and are not submission evidence.</TranslatedText></Description><arm:AnalysisResult OID="AR.RDI.DISTRIBUTION" ParameterOID="IT.ADEX.PARAMCD" AnalysisReason="PRE-SPECIFIED IN SAP" AnalysisPurpose="EXPLORATORY OUTCOME MEASURE"><Description><TranslatedText xml:lang="en">T-17-1 relative dose intensity category distribution.</TranslatedText></Description><arm:AnalysisDatasets><arm:AnalysisDataset ItemGroupOID="IG.ADEX"><def:WhereClauseRef WhereClauseOID="WC.ADEX.PARAMCD.EQ.RDIDL"/><arm:AnalysisVariable ItemOID="IT.ADEX.AVALC"/><arm:AnalysisVariable ItemOID="IT.ADEX.TRT01P"/></arm:AnalysisDataset></arm:AnalysisDatasets><arm:ProgrammingCode Context="R 4.6.0 (controlled reporting program)"><arm:Code>tfl_generation.R tabulates ADEX RDIDL by treatment.</arm:Code></arm:ProgrammingCode></arm:AnalysisResult><arm:AnalysisResult OID="AR.ANC.GCSF" ParameterOID="IT.ADLB.PARAMCD" AnalysisReason="PRE-SPECIFIED IN SAP" AnalysisPurpose="EXPLORATORY OUTCOME MEASURE"><Description><TranslatedText xml:lang="en">T-17-2 worst Cycle 1 ANC nadir grade by G-CSF usage.</TranslatedText></Description><arm:AnalysisDatasets><arm:AnalysisDataset ItemGroupOID="IG.ADLB"><def:WhereClauseRef WhereClauseOID="WC.ADLB.PARAMCD.EQ.ANCNADIR"/><arm:AnalysisVariable ItemOID="IT.ADLB.AVAL"/><arm:AnalysisVariable ItemOID="IT.ADLB.ATOXGR"/><arm:AnalysisVariable ItemOID="IT.ADLB.TRT01P"/></arm:AnalysisDataset><arm:AnalysisDataset ItemGroupOID="IG.ADCM"><arm:AnalysisVariable ItemOID="IT.ADCM.GCSFFL"/></arm:AnalysisDataset><arm:AnalysisDataset ItemGroupOID="IG.ADSL"><arm:AnalysisVariable ItemOID="IT.ADSL.TRT01P"/></arm:AnalysisDataset></arm:AnalysisDatasets><arm:ProgrammingCode Context="R 4.6.0 (controlled reporting program)"><arm:Code>tfl_generation.R combines ADLB ANCNADIR with ADCM GCSFFL and summarizes grade by treatment and prophylaxis status.</arm:Code></arm:ProgrammingCode></arm:AnalysisResult><arm:AnalysisResult OID="AR.BENEFIT.RISK.RDI" ParameterOID="IT.ADEX.PARAMCD" AnalysisReason="PRE-SPECIFIED IN SAP" AnalysisPurpose="EXPLORATORY OUTCOME MEASURE"><Description><TranslatedText xml:lang="en">T-17-4 descriptive benefit-risk summary by RDI tertile.</TranslatedText></Description><arm:AnalysisDatasets><arm:AnalysisDataset ItemGroupOID="IG.ADEX"><def:WhereClauseRef WhereClauseOID="WC.ADEX.PARAMCD.EQ.RDI"/><arm:AnalysisVariable ItemOID="IT.ADEX.AVAL"/><arm:AnalysisVariable ItemOID="IT.ADEX.TRT01P"/></arm:AnalysisDataset><arm:AnalysisDataset ItemGroupOID="IG.ADLB"><def:WhereClauseRef WhereClauseOID="WC.ADLB.PARAMCD.EQ.ANCNADIR"/><arm:AnalysisVariable ItemOID="IT.ADLB.AVAL"/><arm:AnalysisVariable ItemOID="IT.ADLB.ATOXGR"/></arm:AnalysisDataset><arm:AnalysisDataset ItemGroupOID="IG.ADTTE"><def:WhereClauseRef WhereClauseOID="WC.ADTTE.PARAMCD.EQ.OS"/><arm:AnalysisVariable ItemOID="IT.ADTTE.AVAL"/><arm:AnalysisVariable ItemOID="IT.ADTTE.CNSR"/></arm:AnalysisDataset></arm:AnalysisDatasets><arm:ProgrammingCode Context="R 4.6.0 (controlled reporting program)"><arm:Code>tfl_generation.R assigns RDI tertiles and reports descriptive exposure, ANC, and OS summaries without confirmatory inference.</arm:Code></arm:ProgrammingCode></arm:AnalysisResult></arm:ResultDisplay></arm:AnalysisResultDisplays></MetaDataVersion>
</Study>
  </ODM>
