ID,severity,category,status,evidence,standard_or_rule,remediation,effort,disposition_class,disposition_date,disposition_note
F-001,Critical,eCTD integrity,RESOLVED,"platform/validate_ectd_sequence.py validates the complete materialized v3.2.2 sequence surface: DTD checks executed; 99/99 indexed leaves present and checksum-verified; 0 missing leaves; 0 unexpected files; index/STF/regional support references and run-record counts agree.",ICH eCTD 3.2.2 leaf/backbone integrity; FDA eCTD validation; FDA sdTCG 8.1.2,"Resolved by rebuilding m5 from current package inputs, regenerating the eCTD backbone, materializing from index.xml, and verifying indexed payload parity.",Closed 2026-07-09,,,
F-002,Critical,SDTM metadata/data drift,RESOLVED,platform/uplift_sdtm_34.R now emits all 18 SDTMIG 3.4 XPTs declared by define_sdtm.xml; package_ectd.py copies only the uplifted 3.4 layer; 06_qc_evidence/audit/metadata_data_drift.csv has 0 problem rows and metadata control status is pass,CORE-000334; CORE-000355; CORE-000701; CORE-000776; CORE-000852; CORE-001082; SDTMIG 3.4; Define-XML 2.1,"Resolved by completing the uplifted SDTM 3.4 layer, rebuilding m5, regenerating/materializing eCTD sequence, and rerunning metadata drift controls.",Closed 2026-07-09,,,
F-003,Critical,Scientific validity / synthetic data,ACCEPTED,07_reviewer_explanation/guides/TRACEABILITY_MATRIX.md:10-14 says ADaM contains only real MP N=371 and synthetic CbzP is TFL-only; 07_reviewer_explanation/guides/SDSP.md:45-53; TFL banners at 05_outputs/tfl/output/tables/T-11-Efficacy_Tables.txt:1-6,ICH E9(R1) A.2-A.6; FDA standardized study data must correspond to the study; ICH E3,Accepted for non-submission demonstration pipeline: keep synthetic/Guyot CbzP TFL-only with on-record disclosures (README/ADRG/TFL banners/tfl_output_catalog). Full confirmatory two-arm analyses require authoritative CbzP IPD outside this repo.,Accepted 2026-07-09; XL if full IPD acquired,non_submission_demo_limit,2026-07-09,Formal scope decision for demo product; see 06_qc_evidence/audit/FINDINGS_DISPOSITION_BOARD.md. CbzP comparative outputs remain non-confirmatory.
F-004,Critical,False clinical listing,RESOLVED,"The invented L-01 discontinuation listing is absent from 05_outputs/tfl/output/listings, m5, and 08_submission_package/ectd/0000/m5; 06_qc_evidence/audit/file_inventory.csv, 06_qc_evidence/audit/dependency_edges.csv, and 06_qc_evidence/audit/orphans_dangling_deadcode.csv have no remaining L-01/L_discon.sas references after refreshed inventory/orphan checks",ICH E3 listing traceability; FDA sdTCG 8.1.2; data integrity,Resolved by removing the false listing from the active output/package surface and clearing stale audit references. No replacement L-01 is claimed; any future discontinuation listing must be generated from validated ADSL/DS/EX logic with approved shell and independent QC.,Closed 2026-07-09,,,
F-005,Critical,Submission placeholders,ACCEPTED,"08_submission_package/ectd/0000/m1/us/us-regional.xml uses EXAMPLE/000000 application identifiers. platform/package_ectd.py fail-closes if the available source CRF is absent and copies it as blankcrf.pdf without claiming annotation; no true annotated CRF with page-level origins is available.",FDA eCTD validation and Module 5 content expectations; Define-XML CRF origin traceability,"Accepted for the structural demonstration: retain the source blank CRF and explicit non-aCRF disclosure. Replace EXAMPLE identifiers and supply a true annotated CRF with page-level origins only from authorized sponsor records.",Accepted 2026-07-09; M with sponsor records,external_dependency;non_submission_demo_limit,2026-07-09,EXAMPLE eCTD identifiers and absence of a true annotated CRF remain structural demo limits (06_qc_evidence/audit/FINDINGS_DISPOSITION_BOARD.md).
F-006,Major,TLF numerical correctness,RESOLVED,"05_outputs/tfl/lab_shift_table.R selects one baseline and one worst post-baseline record per subject/parameter, asserts unique selections and cell-total arithmetic, and renders shift n separately from safety N; tests/test_lab_shift_table.R passes; regenerated T-21 shows MP cell totals 358/356/358 matching shift denominators and not exceeding safety N=371",ICH E9; SAP §7.5; analysis-result accuracy,"Resolved by extracting controlled lab-shift selection logic, adding denominator/cell-total assertions, regression-testing duplicate baseline handling, regenerating T-21, and rebuilding the TFL index/eCTD package.",Closed 2026-07-09,,,
F-007,Major,Dual-programming validity,RESOLVED,04_analysis_datasets/programs/r/v_adex_validation.R preserves missing PERFDOSE AVALC instead of emitting literal 'NA'; cross_lang_audit.R requires each governed business key to exist and be unique in both tracks before exact keyed diffdf comparison; the live ODA run reports 0 cell differences for all 8 SAS/R pairs and exact F042 endpoint parity.,ADaMIG ADEX value semantics; independent validation practice,"Resolved by correcting R ADEX missing-character derivation, removing lossy reconciliation normalization, introducing unique source-sequence keys, regenerating the datasets, and rerunning exact SAS/R reconciliation in oda mode.",Closed 2026-07-09,,,
F-008,Major,ADaM metadata/data drift,RESOLVED,"platform/gen_adam_labels.R now generates spec-derived SAS variable/order macros and R label/order CSV; 04_analysis_datasets/programs/sas/U_xpt_export.sas and 04_analysis_datasets/programs/r/config_study.R enforce exact spec variable sets and export order; real ODA SAS rerun passed, cross-language reconciliation is non-simulated PASS, and 06_qc_evidence/audit/metadata_data_drift.csv has 0 ADaM problem rows",ADaMIG 1.3; Define-XML 2.1; local AD0102,"Resolved by orchestrating spec-derived label/order generation, enforcing spec variable sets at both SAS and R export boundaries, regenerating production XPTs through ODA, and rerunning metadata drift plus reconciliation controls.",Closed 2026-07-09,,,
F-009,Major,Provenance / audit trail,RESOLVED,"platform/build_release_run_manifest.py creates a hash-sealed run manifest binding git state, environment, inputs/programs/TFLs/logs/package files, QC statuses, and ADaM/BIMO XPT package/sequence parity. Status grades are PASS (release-candidate), REMEDIATION (partial DAG / dirty tree / stale companion artifacts), or FAIL (binding integrity). The current release evidence requires a complete 41/41 GREEN ODA DAG and a PASS release manifest. output_hash_binding.csv shows production/validation byte distinction and package/sequence parity.","21 CFR 11.10(a),(e),(f),(g),(k); reproducibility/change control","Resolved for current-run reproducibility/change-control hash binding by adding the release-run manifest generator, DAG stage, delivery-control gate, evidence-layer entries, output hash binding, and release-candidate G09 check with PASS/REMEDIATION/FAIL grades. This is a hash seal, not a Part 11 e-signature; platform validation, access control, and e-signature controls remain tracked under F-025.",Closed 2026-08-01,,,
F-010,Major,SAP/TFL scope,RESOLVED,"config/tfl_output_catalog.yaml separates the SAP v4 full catalog (31 IDs) from the controlled release scope (21 in-scope IDs). 18 SAP full-catalog IDs are explicitly deferred with reasons; 8 produced IDs not in the historical SAP ID list are approved_extension with SAP v4 section basis. build_tfl_output_index.py gates controlled-scope bijectivity, physical presence, endpoint semantics, ARM mapping, and current real-SAS companions; the latest index is PASS with zero missing or stale companions. Deferred SAP IDs are not silent gaps. L-01-1 remains out of scope (F-004).",ICH E9(R1) A.6; ICH E3; approved SAP control,"Resolved for controlled programming scope by issuing config/tfl_output_catalog.yaml as the release-scope amendment, wiring it into the TFL index gate, and documenting deferred IDs and the Stage-17 SAS companion policy. Implementing the remaining deferred shells remains backlog, not an undisclosed gap.",Closed 2026-08-04,,,
F-011,Major,Analysis population,RESOLVED,"05_outputs/tfl/tfl_generation.R joins ADSL.PSABL, excludes PSABLIF='Y' fallback values, and filters observed baseline PSA >=20 for the SAP measurable-PSA response. Current output reports CbzP 145/361 (40.2%) and MP 61/329 (18.5%) with combined eligible N=690. tests/test_tfl_population_contract.R, figure-data reconciliation, and the 41/41 genuine ODA DAG pass.","02_specifications/sap/TROPIC_SAP_v4.0_industry_grade.docx §§5.2, 10.2; ICH E9(R1) estimand population attribute","Implemented the observed-baseline gate, duplicate-USUBJID guard, and shared response-evaluable set; regenerated R/SAS outputs, reviewer package, and eCTD evidence; verified 2026-08-03 and reconfirmed for the current candidate.",Low,resolve_now,2026-08-03,Current candidate evidence reconfirmed
F-012,Major,Population inconsistency,ACCEPTED,"F-01-1 figure displays total randomized/ITT N=749 (371 real MP + 378 synthetic CbzP), while protocol/SAP/publication specify 755; 07_reviewer_explanation/guides/TRACEABILITY_MATRIX.md:10-14 explains the MP-only ADaM",ICH E9(R1) population attribute; protocol/SAP ITT definition,Accepted: do not label combined 749 as original-trial ITT. Controlled figures show analysis cohorts present in this package (real MP + synthetic CbzP). Protocol N=755 requires full two-arm source data.,Accepted 2026-07-09; L with full data,non_submission_demo_limit,2026-07-09,N=749 is MP real + CbzP synthetic; not protocol ITT 755 (06_qc_evidence/audit/FINDINGS_DISPOSITION_BOARD.md).
F-013,Major,Variable traceability,RESOLVED,"The authoritative specification and metadata lineage application cover all 161 ADaM variables with documented predecessors and MethodOID algorithms where required; platform/metadata_lineage/metadata_lineage_status.json shows governed lineage/method check PASS with zero predecessor, method, Define-XML, origin, or text mismatches.",ADaMIG 1.3 traceability; Define-XML 2.1 def:Origin/Method; FDA sdTCG traceability expectations,"Resolved by config/metadata_lineage.yaml, platform/apply_metadata_lineage.py, ADaM_spec.xlsx predecessor/method updates, and Define-XML MethodDef expansion. Keep lineage check in CI/delivery controls.",Closed 2026-07-09,,,
F-014,Major,ARM traceability,RESOLVED,"03_metadata/define/define.xml now has 10 ResultDisplays/18 AnalysisResults: every controlled statistical output is mapped except the non-analysis F-01-1 flow diagram; OS/PFS declare ADSL ECOGBL/MEASDISF/TRT01P covariates; display names bind physical TFL IDs; TTPAIN and response/Optimus table results are explicit; every display carries the Path A CbzP disclosure. platform/define_arm_contract.py and G02 enforce the contract with negative-control tests.",ARM for Define-XML 1.0; Define-XML 2.1 referential integrity,"Expanded controlled-scope ARM, corrected TTUMOR to ITT-primary, added TTPAIN and response/Optimus mappings, declared survival covariates, bound display names to TFL IDs, and made the semantic contract executable.",Closed 2026-08-04,resolve_now,2026-08-04,Controlled analysis-output ARM coverage complete for Path A; deferred SAP outputs remain outside the release catalog.
F-015,Major,Conformance coverage,ACCEPTED,"platform/conformance/CORE_SDTM34_RUN_RECORD.md:12-17 validates only DM/AE/EX/DS/VS and records 20 issues/13,010 occurrences; required/expected-variable rules CORE-000334/-000355 remain",CORE-000022; -000266; -000334; -000355; -000732; -000767; FDA sdTCG 8.1.2,"Accepted: controlled evidence is the documented CORE SDTMIG 3.4 run record plus SDRG known issues. Exhaustive domain-by-domain residual disposition of all CORE occurrences is a broader conformance program, not a silent claim of zero findings.",Accepted 2026-07-09; L for full residual closure,external_dependency;scope_out_with_disclosure,2026-07-09,Targeted SDTMIG 3.4 CORE run retained; full-domain residual program external (06_qc_evidence/audit/FINDINGS_DISPOSITION_BOARD.md).
F-016,Major,ADaM conformance,ACCEPTED,"Pinnacle 21 Community 4.1.0 / FDA 2508.1 processed the final 7 ADaM datasets and 121320 records with 0 rejects; 30 open issue groups / 2373 occurrences and the generated report's incompatible-CLI caveat are hash-bound in 06_qc_evidence/conformance/p21_adam_runrecord.md and p21_adam_summary.json",FDA Validator Rules; ADaM Conformance Rules; ADaMIG 1.3,"Accepted for controlled-simulation scope: retain Community output as informative issue-discovery evidence only. Licensed qualified Enterprise execution and independent approval of every disposition are required before any regulated-use or clearance claim.",Accepted 2026-08-12; external licensed/qualified execution,external_dependency,2026-08-12,Community executed with open findings; Enterprise not executed; no clean or clearance claim (06_qc_evidence/audit/FINDINGS_DISPOSITION_BOARD.md).
F-017,Major,SDTM timing / sequence,ACCEPTED,Full read of 35 sequence XPTs found non-ISO values in CMSTDTC/CXDTC/LBDTC/LSDTC/PNDTC; 04_analysis_datasets/programs/r/v_sdtm_validation.log:135-143 already warns; TSSEQ is nonunique by TSPARMCD,CORE-000294/-000354/-000505/-000730 family; CORE-000154/-000544; SDTMIG ISO 8601 and --SEQ,Accepted as source-data limitation (not unreported programming defect): partial ISO dates and TS sequencing issues are documented in SDRG and SDTM validation warnings; analysis does not invent day precision.,Accepted 2026-07-09,scope_out_with_disclosure,2026-07-09,Source PDS date precision / TSSEQ carried in SDRG as known data limitation (06_qc_evidence/audit/FINDINGS_DISPOSITION_BOARD.md).
F-018,Major,Log cleanliness,RESOLVED,"platform/check_log_cleanliness.py and config/log_cleanliness.yaml enforce a governed scan of configured persisted logs only (coverage=configured_persisted_logs_only; not full stage stdout/stderr). Current log_cleanliness_status.json is PASS: 13 logs scanned, 0 unapproved findings, and 1 exact capped reviewed exception for 44 source-classified pre-treatment TEAE rows. Real ODA production/reconciliation is GREEN; release-candidate grade remains independently controlled by clean-tree review.",Validated programming practice; 21 CFR 11.10(a); sponsor log SOP,"Resolved by guarding dirty date operations, eliminating uncontrolled SAS/R warnings, adding a blocking log-cleanliness gate with reviewed-exception caps and explicit coverage disclosure, and wiring it into validation strategy/release controls.",Closed 2026-08-04,,,
F-019,Major,Document contradiction / approval,ACCEPTED,00_governance/REPRODUCIBILITY.md and ADRG §7/§9 state OS/PFS Guyot reconstruction and secondary PH-scaling; ADRG/SDSP state OCCDS v1.0 + custom episode-merging (no OCCDS v1.1). SAP v4.0 signature blocks remain blank by design for non-sponsor-approved remediation SAP (SAP_LOCK_REVIEW_MEMO).,ICH E9(R1) A.6; document control; 21 CFR 11.50 and 11.70 when electronic approval is asserted,Accepted after documentation reconciliation: reconstruction language aligned; OCCDS described as v1.0 + TROPIC extension. Electronic/sponsor SAP approval signatures are out of scope for this portfolio package (non-Part-11 demo).,Accepted 2026-07-09,resolve_now_partial;non_submission_demo_limit,2026-07-09,Docs reconciled for Guyot/OCCDS v1.0; blank SAP signatures remain demo limit (06_qc_evidence/audit/FINDINGS_DISPOSITION_BOARD.md).
F-020,Major,Dataset-JSON lifecycle,ACCEPTED,"export_datasetjson.py uses ADCM ASTDT business keys (study_manifest), SDTM MDV 3.4 for package layer, fails closed on zero SDTM inputs / zero VALID exports. Layer is not consumed by package_ectd.py.","Dataset-JSON 1.1 schema passes, but FDA currently treats Dataset-JSON as evaluation/pilot; metadata/data traceability",Partially resolved (key/MDV/empty-run hardening). Residual accepted: Dataset-JSON is an exploratory exchange layer without eCTD delivery route; NDJSON optional path remains non-default. Full row-for-row packaging program is backlog.,Accepted 2026-07-09; M for full packaging route,resolve_now_partial;scope_out_with_disclosure,2026-07-09,Keys/MDV/empty-export hardened; Dataset-JSON remains exploratory non-eCTD layer (06_qc_evidence/audit/FINDINGS_DISPOSITION_BOARD.md).
F-021,Major,USDM reproducibility / CT,ACCEPTED,build_usdm.py uses UUID5 deterministic ids and CT_VER=2026-03-27 aligned with project CORE posture; output under 03_metadata/usdm/ is not eCTD-packaged.,"21 CFR 11.10(a),(e),(k); CDISC CT 2026-03-27; official USDM conformance UNVERIFIED",Partially resolved (reproducible IDs + declared CT version). Residual accepted: USDM remains exploratory study-definition export without submission packaging or official schema gate in the release claim.,Accepted 2026-07-09,resolve_now_partial;scope_out_with_disclosure,2026-07-09,Deterministic UUID5 + CT 2026-03-27; USDM remains exploratory (06_qc_evidence/audit/FINDINGS_DISPOSITION_BOARD.md).
F-022,Major,ARS completeness,ACCEPTED,platform/build_ars.py covers MP-arm OS/PFS/TTPAIN/TTPSA/TTUMOR with record-accounting fields; TTSAE and response/safety/Optimus analyses remain outside the additive ARS pilot; output has no eCTD consumer,ARS 1.0; ICH E9(R1) A.6,Accepted: ARS models the controlled real-MP TTE core and explicitly excludes the synthetic comparator. Full controlled-catalog ARS coverage and an eCTD consumer are deferred with config/tfl_output_catalog.yaml as scope control.,Accepted 2026-08-04; M-L for full ARS,scope_out_with_disclosure,2026-08-04,ARS covers the real-MP TTE core including TTPAIN; full TFL ARS + eCTD consumer remain exploratory backlog.
F-023,Major,Traceability matrix defects,RESOLVED,"07_reviewer_explanation/guides/TRACEABILITY_MATRIX.md uses the current unique governed dataset keys; maps all 21 controlled output IDs; records 10 ARM ResultDisplays/18 AnalysisResults; and aligns every named infrastructure script to its exact stage in the current 41-stage manifest DAG, including synthetic reconstruction/validation/export, F042 endpoint control, results/forest/figure reconciliation, metadata gates, simulation evidence, and release binding.",FDA sdTCG 8.1.2; Define-XML/ARM traceability,"Resolved by regenerating the matrix content against study_manifest keys, config/tfl_output_catalog.yaml, the executable ARM contract, and current orchestrator stage model; CI rejects stage-number drift.",Closed 2026-08-04,resolve_now,2026-08-04,TRACEABILITY_MATRIX refreshed for the professional-build audit.
F-024,Minor,Dead/orphan artifacts,RESOLVED,"06_qc_evidence/audit/orphans_dangling_deadcode.csv was rebuilt from the current manifest/catalog/filesystem on 2026-08-23: 23 classified control rows, 0 confirmed cleanup findings in the governed candidate set, 0 unindexed Module 5 XPT payloads, no false listing, and no stale NDJSON. CbzP reconstruction/validation/export, metadata prerequisites, and Dataset-JSON/ARS/USDM are correctly classified as orchestrated; the dead local archive and three historical one-off audit scripts were removed recoverably or through reviewed Git changes.",Configuration management; 21 CFR 11.10(k),"Resolved the stale classifications, removed abandoned local code and the tracked empty listing placeholder, added fail-closed hygiene tests, and retained only documented manual/audit utilities plus explicitly controlled deferments.",Closed 2026-08-23,resolve_now,2026-08-23,Current register is regenerable and the whole-repository disposition is recorded in REPOSITORY_CLEANUP_AUDIT_2026-08-23.md.
F-025,Major,Part 11 controls,ACCEPTED,"Repository has Git provenance but no evidence of validated system qualification, role-based access/authority checks, secure time-stamped audit trail, e-signature identity verification, or signature/record linking; SAP approvals are blank","21 CFR 11.10(a),(d)-(g),(i)-(k); 11.50; 11.70; 11.100; 11.200","Accepted: Git + release-run hash seals are reproducibility controls, not 21 CFR Part 11 validated-system evidence. No e-signature/SOP/access-control claim is made. Organizational CSV program required before any Part 11 assertion.",Accepted 2026-07-09; XL org program,non_submission_demo_limit,2026-07-09,Explicitly non-Part-11 portfolio package (06_qc_evidence/audit/FINDINGS_DISPOSITION_BOARD.md).
F-026,Major,AE extract fidelity,ACCEPTED,"~1134 BASELINE AE rows skeleton: terms present AESER/AEREL/AEOUT blank; TEAE blank AESER ~0-1; TRTEMFL separates analysis",OCCDS/TEAE analysis practice,"Disclose ADRG 4B; soft QC TEAE AESER; do not impute AESER on baseline skeleton",Low,scope_out_with_disclosure,2026-07-09,D-012 follow-on
F-027,Minor,LB CRF fidelity,ACCEPTED,"ALB and LDH not on CRF hematology/biochemistry panels and absent from PDS LBTESTCD; ADSL ALBBL/LDHBL Assigned placeholders",ADaM baseline covariates,"Keep Assigned origin; do not claim PDS stripped form-collected ALB/LDH",Low,scope_out_with_disclosure,2026-07-09,D-012 Class C
F-028,Major,SDTM exposure/arm consistency,ACCEPTED,"Subject 006193-530-002-603 has 10 EX rows EXTRT=XRP6258 while DM.ARM=MITOXANTRONE/PREDNISONE for all 371; present in pristine and package EX",SDTMIG EX vs DM arm consistency,"Disclose SDRG; programming uses DM/ADSL arm; do not silently recode EXTRT; optional QC listing",Med,scope_out_with_disclosure,2026-07-09,WS1_SDTM_E2E_AUDIT
F-029,Major,T-17 Safety population,RESOLVED,"T-17-1/T-17-4 counted all 378 CbzP ADEX RDI rows; SAP requires CbzP Safety (N=371). Fixed 05_outputs/tfl/tfl_generation.R (adex_safety = ADSL SAFFL=Y left-join; counts 241/96/34; N=371) and regenerated T-17-Optimus_Tables.txt. Independent recomputation matched (241/96/34; 65.0%/25.9%/9.2%).",SAP v4.0 Appendix D Optimus population; ICH E9(R1) analysis population,"Restrict RDI displays to SAFFL=Y; regenerate T-17; verified in output 2026-08-01.",Med,resolve_now,2026-08-01,2026-08-01 audit BLOCKER remediated; CbzP N=378->371
F-030,Major,OS/PFS stratification coding,RESOLVED,"compute_tte_stats (05_outputs/tfl/tfl_stats.R), F-12-1 R/SAS forest programming, and forest reconciliation now use ECOG 0-1 vs 2 crossed with MEASDISF (4 strata); the prior raw ECOGBL 0/1/2 logic (6 strata) is removed. Regression tests sample ECOG=2 and assert pooled equality. Regenerated OS p=0.000213 / PFS p=1.95e-7 and Stage-22 forest reconciliation PASS.",SAP v4.0 randomization strata; ICH E9(R1),"Pool ECOGBL<=1 as one stratum across TTE, forest, and reconciliation code; regenerate TFLs; verified 2026-08-01.",Med,resolve_now,2026-08-01,2026-08-01 audit MAJOR remediated
F-031,Major,TFL identifier reversal,RESOLVED,"config/tfl_output_catalog.yaml, the physical T-11 text block, and the generated TFL index now agree with SAP v4.0 Appendix D: T-11-6=TTUMOR and T-11-7=TTPSA. The semantic endpoint gate fails on a title/physical-block inversion; regenerated table, package, and traceability evidence pass.",SAP v4.0 Appendix D IDs; FDA sdTCG 8.1.2 traceability,"Swap identifiers to SAP order; add executable endpoint-semantic gate; regenerate T-11 and package; verified 2026-08-01.",Low,resolve_now,2026-08-01,2026-08-01 audit MAJOR remediated
F-032,Major,TFL statistic mislabel,RESOLVED,"The 2026-08-01 repair first relabeled the then-computed Cox Wald p-value. The 2026-08-09 forensic closure completed the intended method: secondary TTE blocks now report a stratified Cox HR and a separately computed stratified log-rank p-value. Current live values are TTPSA HR 0.84 (0.70-0.99), p=0.0319; TTUMOR HR 0.60 (0.44-0.82), p=0.0007; TTPAIN HR 2.84 (1.97-4.11), p<0.0001.",ICH E9(R1) analysis results; accurate output labeling,"Compute and label each statistic explicitly; regenerate T-11 and reviewer narrative; revalidated 2026-08-09.",Low,resolve_now,2026-08-09,2026-08-09 forensic pipeline closure
F-033,Major,Release seal HEAD recursion,RESOLVED,"build_release_run_manifest.py recorded current HEAD; scripts/verify_release.py required recorded head == checkout HEAD, impossible after committing the tracked seal (commit advances HEAD). Replaced with source_tree_sha256 digest over controls+programs (seal-output-free, recomputable in a bare clone); current_HEAD check removed; unit test added and passing.","21 CFR 11.10(a),(e),(k); reproducibility/change control","Bind seal to source-tree digest; rebuild manifest; verified 2026-08-01.",Med,resolve_now,2026-08-01,2026-08-01 audit CRITICAL remediated
F-034,Major,CRF falsely tagged annotated,RESOLVED,"platform/build_ectd_backbone.py tagged blankcrf.pdf annotated-crf; Path A claims no aCRF (PRODUCT_CLAIM 8; F-005). Retagged study-report-body (ich); RUN_RECORD corrected; backbone rebuilt (0 annotated-crf leaves) and materialized 90/90.",FDA eCTD STF leaf tags; PRODUCT_CLAIM 8,"Retag blank CRF as study-report-body; rebuild backbone; verified 2026-08-01.",Low,resolve_now,2026-08-01,2026-08-01 audit CRITICAL remediated
F-035,Major,Reviewer-guide derivation drift,RESOLVED,"ADRG/SDRG stated ALBBL=38.0/LDHBL=220.0 constants flagged Y; code sets missing with blank flags (A_adsl_generation.sas:274-277; v_adsl_validation.R:190-193). SDRG claimed COUNTRY=IND/REGION=REST OF WORLD; code derives neither. SDSP called the package a submission/methodological re-analysis exceeding Path A. All three guides corrected to match code/claim; PDFs re-rendered via package_ectd; define.xml origin/method descriptions corrected (validated 410 checks).",ADaMIG 1.3; Define-XML 2.1 origins; PRODUCT_CLAIM Path A boundaries,"Correct ADRG/SDRG/SDSP to code/claim truth; re-render guide PDFs; verified 2026-08-01.",Med,resolve_now,2026-08-01,2026-08-01 audit MAJOR remediated
F-036,Major,ORR p-value sync,RESOLVED,"The original 2026-08-01 narrative mismatch was corrected. After the 2026-08-09 RECIST confirmation/prior-PD correction, the live measurable-disease result is CbzP 30/179 versus MP 12/203 with Fisher p=0.0009; T-11, analysis_report, ADRG, and WS-2 now agree.",Cross-artifact consistency; ICH E3,"Bind narrative values to the generated T-11 output and regression-test the response contract; revalidated 2026-08-09.",Low,resolve_now,2026-08-09,2026-08-09 forensic pipeline closure
F-037,Major,Figure-data reconciliation evidence,RESOLVED,"figure_data_reconcile.R recorded bare overall=PASS with empty detail. It now persists per-check counts, max deltas, and tolerances; the current 2026-08-23 evidence reconciles KM OS/PFS, 32 risk-table rows, 690 waterfall rows, 60 swimmer rows, and 730 exposure-response rows in platform/figure_data_reconciliation_status.json.",Reproducibility/change control; auditability,"Persist structured per-check results; verified 2026-08-01 and reconfirmed by the 2026-08-23 genuine ODA run.",Low,resolve_now,2026-08-01,2026-08-23 evidence reconfirmed
F-038,Major,RC checklist scope conflation,RESOLVED,"build_release_candidate_checklist.py evaluates pipeline-health full-DAG scope from pipeline_health.json and release-manifest grade separately. The current 19/19 checklist is PASS only against a complete 41/41 ODA run and PASS release-candidate manifest.",Release-candidate G09 semantics,"Decouple manifest and health run_scope in checklist; verified 2026-08-01 and reconfirmed for the current candidate.",Low,resolve_now,2026-08-01,Current candidate evidence reconfirmed
F-039,Major,Release evidence freshness,RESOLVED,"The SAS Production-stage companion render precedes the R primary output by minutes, while pipeline_health.json previously emitted a naive local timestamp; the TFL index therefore misclassified current companions as stale. build_tfl_output_index.py now allows bounded same-run mtime order, cibuild.py emits an explicit UTC timestamp, and the current index is PASS with zero stale or missing companions after the genuine ODA full DAG.","21 CFR 11.10(e),(k); reproducibility/change control; current-run evidence binding","Correct the timestamp and same-run freshness controls; make companion freshness a completeness gate; regenerate index and package evidence; verified 2026-08-01 and reconfirmed by the 41-stage 2026-08-23 ODA run.",Low,resolve_now,2026-08-01,2026-08-23 evidence reconfirmed
F-040,Major,TTUMOR censoring,RESOLVED,"ADTTE TTUMOR censoring restricts the pool to post-randomization RECIST values CR/PR/SD/PD and excludes ADRS death milestones; the final production output has zero TTUMOR censor records dated on DTHDT. Evidence: SECTION_03_ADAM_DERIVATION_AUDIT_2026-08-03.md and the current 41/41 genuine ODA DAG.","SAP v4.0 §§10.1, 10.3; ADaMIG BDS-TTE censoring traceability","Correct SAS/R censor pools, regenerate production/validation/package outputs, and reconcile admiral core; verified 2026-08-03 and reconfirmed for the current candidate.",Low,resolve_now,2026-08-03,Current candidate evidence reconfirmed
F-041,Major,PFS censoring rule,RESOLVED,"PFS uses the latest valid post-baseline RECIST/PSA/evaluable-pain assessment, or randomization when none exists; NACT remains priority. SAS, R, and admiral agree after the current 41/41 genuine ODA run.","SAP v4.0 §10.1 / Table 13","Add governed last-evaluable candidates and no-post-baseline branch; regenerate and reconcile; verified 2026-08-03 and reconfirmed for the current candidate.",Med,resolve_now,2026-08-03,Current candidate evidence reconfirmed
F-042,Major,PFS/TTPAIN pain derivation and provenance,ACCEPTED,"The corrected ED-01 through ED-07 rule is implemented in separate SAS/R tracks. The 2026-08-09 evidence has 37 primary pain-progression subjects (36 diary-only and 1 direct-RT-only), 15 complete-date RT records plus 1 missing/partial-date inventory record, and 43 pain responders among 156 response-evaluable real-MP subjects; ITT N=371. CM+PR union, source sensitivities, TTUMOR ITT, and SAP-native T-11 mappings are present.","Protocol Amendment 5 §§9.1.2.3-9.1.2.4 and 13.2-13.4; corrected de Bono et al. Lancet 2010 pp.1150-1151; SAP v4.0 §§10.1, 10.4 and Appendix D; ICH E9(R1) estimand/component traceability","Retain the separately programmed SAS/R derivations, exact subject-level parity gate, and full-DAG reseal as ongoing controls. Path A acceptance remains bounded by external qualified statistical/medical review; do not claim sponsor, medical, independent, or regulated approval.",Med,scope_out_with_disclosure,2026-08-09,2026-08-09 forensic pipeline closure; F-042 remains an accepted Path A residual pending external qualified review.
F-043,Minor,Pipeline run-scope telemetry,RESOLVED,"The abort path previously called write_telemetry without the manifest's complete expected-stage list, so a failed 27-stage run was recorded as RED/full_dag with stages_expected=27 and stages_not_run=[]. The committed 2026-08-05 isolated rerun record preserves this evidence. platform/cibuild.py now passes the complete stage map through serial and parallel abort paths; tests/test_pipeline_abort_scope.py verifies RED/partial_dag semantics and both callers.","Reproducibility/change control; truthful run-scope and failure telemetry","Pass the manifest-derived expected stage names into abort telemetry, add serial/parallel regression coverage, and retain the historical failed-run record unchanged; verified 2026-08-05.",Low,resolve_now,2026-08-05,2026-08-05 abort-scope telemetry corrected
F-044,Major,CI test coverage,RESOLVED,"CI omitted data-free regression tests: tests/test_pipeline_abort_scope.py (3 tests), tests/test_define_arm_contract.py (4 tests), and tests/test_f042_provisional_pain_derivation.R were not invoked by .github/workflows/ci.yml.","Reproducibility/change control; regression coverage for ARM contract, abort telemetry (F-043), and F-042 endpoint rules","Wire pytest for the Python tests and Rscript for the R derivation test into the validate job; verified 2026-08-05.",Low,resolve_now,2026-08-05,2026-08-05 CI audit closure
F-045,Major,CI eCTD package-copy test,RESOLVED,"tests/test_f042_sas_response_control.py compared the SAS source against the materialized 08_submission_package/ectd/0000/m5 copy, which is gitignored and absent on a fresh checkout, so the file could not run in data-free CI.","Reproducibility/change control; package-copy drift detection","Split the test: always assert the tracked m5 program copy matches source; skip the materialized eCTD copy when absent via pytest.mark.skipif; wire into CI; verified 2026-08-05.",Low,resolve_now,2026-08-05,2026-08-05 CI audit closure
F-046,Major,CI CDISC conformance execution,RESOLVED,"CT cross-validation always ran --allow-skip in CI (no CDISC_LIBRARY_API_KEY secret; offline cache gitignored) and the full CDISC CORE run is data-bearing and not part of CI.","CDISC CT/CORE conformance; data-free CI honesty","CT step now runs as a hard gate when CDISC_LIBRARY_API_KEY is configured and reports the skip explicitly otherwise; add a conformance-coverage summary step; keep the full CORE run documented as a data-bearing local gate; verified 2026-08-05.",Med,resolve_now,2026-08-05,2026-08-05 CI audit closure
F-047,Minor,CI CDISC API key availability,ACCEPTED,"A local gitignored .core_run/.env carries CDISC_LIBRARY_API_KEY for local runs, but GitHub Actions cannot read local files; the key must be added as a repository secret for the CI CT gate to become a hard check. Until then, CT cross-validation in CI remains an explicit, visible SKIP.","External dependency; CI conformance enforcement","Add CDISC_LIBRARY_API_KEY as a GitHub repository secret (same value as .core_run/.env) to turn the CI CT gate into a hard check; accepted for data-free CI until then.",Low,external_dependency,2026-08-05,"2026-08-05 accepted external dependency; local key present in .core_run/.env, CI enforcement requires GitHub repo secret"
F-048,Medium,CI secret scanning,RESOLVED,"Gitleaks existed only as a local pre-commit hook; the GitHub Actions workflow had no secret scan.","Security hygiene; credential leakage prevention","Add a pinned gitleaks v8.18.4 scan step to the validate job; verified 2026-08-05.",Low,resolve_now,2026-08-05,2026-08-05 CI audit closure
F-049,Medium,CI dependency reproducibility,RESOLVED,"R is pinned to 4.6.0 and Python CI installs from requirements-ci.txt with a tracked fully pinned transitive requirements-ci.lock; dependency-drift checks run in CI.","Reproducibility/change control","Pin the audited R version and Python top-level/transitive dependency sets; keep lock freshness gated in CI.",Low,resolve_now,2026-08-05,2026-08-23 current lock evidence reconciled
F-050,Low,CI workflow hardening,RESOLVED,"The workflow lacked a permissions restriction, concurrency control, job timeouts, and manual dispatch.","GitHub Actions hygiene","Add permissions: contents: read, a concurrency group with cancel-in-progress, timeout-minutes, and workflow_dispatch; verified 2026-08-05.",Low,resolve_now,2026-08-05,2026-08-05 CI audit closure
F-051,High,Release governance authorization,RESOLVED,"Codex Security scan 81056d45-0e9b-4bb9-854e-efb3a93ffc38 showed that the former governance rebind path could choose an arbitrary base and let the mutable review allowlist authorize its own expansion while carrying stale genuine-SAS evidence. platform/governance_reseal_policy.py now supplies one shared narrow policy to the rebind tool, regulatory baseline, manifest builder, and independent verifier; the rebind must start from an authenticated committed predecessor and rejects control-plane changes and malformed or discontinuous chains.","21 CFR 11.10(a),(e),(k); authenticated change control and release-record integrity","Centralize and enforce the reseal policy at every downstream gate, restrict the eligible delta to reviewer-only files already inside the controlled review surface, authenticate predecessor evidence, and regression-test both valid and adversarial chains.",Med,resolve_now,2026-08-24,Security finding remediated; a fresh genuine-SAS full-DAG run and final clean seal remain mandatory promotion gates.
F-052,Medium,Release seal race and source identity,RESOLVED,"The former rebind hashed mutable worktree files and did not prove that HEAD stayed fixed for the operation. scripts/rebind_governance_seal.py now hashes immutable blobs from the captured HEAD commit, requires a clean tree, checks the captured commit again before replacement, and performs the atomic evidence update only after exact-path policy validation.","21 CFR 11.10(e),(k); deterministic source identity and change control","Bind the governance delta to immutable Git objects from one captured commit, reject dirty or changing checkouts, and cover worktree substitution and changed-HEAD cases with fail-closed tests.",Low,resolve_now,2026-08-24,Security finding remediated and included in the release-governance regression surface.
F-053,Medium,Module 5 source path containment,RESOLVED,"Module 5 and eCTD builders formerly accepted a symlinked governed source leaf and could package bytes outside the repository. platform/safe_filesystem.py and the package/backbone callers now resolve every component descriptor-relatively with no-follow semantics, require regular files, compare stable inode metadata, and fail on symlinks or parent replacement.","FDA Study Data Technical Conformance Guide; package provenance and least-privilege filesystem handling","Use descriptor-relative no-follow reads for controlled source leaves and add adversarial source-symlink and parent-swap regression tests.",Med,resolve_now,2026-08-24,Security finding remediated; package provenance now fails closed on unsafe source topology.
F-054,Medium,eCTD destination containment,RESOLVED,"The former eCTD materialization/validation paths could follow destination, cache, root, or control symlinks during copy, chmod, replacement, or cleanup and could silently skip an unreadable subtree. platform/safe_filesystem.py now performs descriptor-relative mkdir, copy, replace, chmod, unlink, enumeration, and recursive removal with O_NOFOLLOW-style checks; unsafe roots, leaf swaps, parent swaps, and unreadable subtrees fail closed.","FDA eCTD sequence integrity; secure temporary-file and output-boundary controls","Replace path-based mutations with an fd-relative containment layer and exercise source/destination symlinks, directory-swap races, unsafe cleanup targets, and unreadable descendants in the eCTD security suite.",High,resolve_now,2026-08-24,Security finding remediated; focused eCTD filesystem and security regression suites pass.
F-055,Medium,ODA credential configuration execution,RESOLVED,"platform/oda_broker.py formerly executed the personal Python configuration before proving that it was a stable owner-only regular file. It now opens without following symlinks, verifies current ownership, exact mode 0600, regular-file type, inode/device stability, and bounded readable content before executing a private verified-byte copy; inherited CDISC credentials are also removed from unrelated CORE subprocesses.","Credential confidentiality; least privilege; validated external-service configuration","Validate the personal configuration before interpretation, execute only the verified bytes, scope external keys to the one command that needs them, and regression-test permissions, symlinks, file replacement, and environment leakage.",Med,resolve_now,2026-08-24,Security finding remediated without reading or exposing credential values.
F-056,Medium,Dependency and validation-rule supply chain,RESOLVED,"Credential-bearing CI/ODA/CORE workflows formerly installed version-only Python requirements without artifact hashes and the custom CORE rule surface was not independently locked. The build now uses fully hash-pinned runtime and build locks with --require-hashes, no build isolation, binary-only defaults plus explicit source exceptions, pip check, sealed lock-file registries, restricted CDISC key scope, and an independently verified custom-rule hash lock.","GitHub Actions supply-chain guidance; reproducible build and validation-rule provenance","Generate deterministic runtime/build locks, require artifact hashes in every install path, seal workflow and lock inputs, lock the custom CORE rules independently, add dependency review and CodeQL, and regression-test lock freshness and key isolation.",Med,resolve_now,2026-08-24,Security finding remediated; final proof is the clean-checkout CI and genuine release run for this candidate.
F-057,Minor,macOS PDF staging portability,RESOLVED,"The hardened package renderer staged FPDF and Ghostscript output in the operating-system default temporary directory. On macOS that path traverses the /var symlink, so the no-follow release boundary correctly refused promotion and left the package rebuild incomplete.","Portable deterministic package generation; no-follow filesystem boundary","Stage renderer output under controlled ignored tmp/pdf-render at mode 0700, promote only through the stable descriptor-relative copy primitive, and retain a regression assertion for the controlled temp root.",Low,resolve_now,2026-08-24,"Discovered during the blocked post-remediation package rebuild; 19 focused filesystem tests, 99/99 eCTD leaves, and 62 generated PDF pages passed review."
