<?xml version='1.0' encoding='UTF-8'?>
<?xml-stylesheet type="text/xsl" href="define2-1.xsl"?><ODM xmlns="http://www.cdisc.org/ns/odm/v1.3" xmlns:def="http://www.cdisc.org/ns/def/v2.1" xmlns:xlink="http://www.w3.org/1999/xlink" xmlns:xsi="http://www.w3.org/2001/XMLSchema-instance" xmlns:arm="http://www.cdisc.org/ns/arm/v1.0" xsi:schemaLocation="http://www.cdisc.org/ns/odm/v1.3 http://schema.cdisc.org/define/v2.1/define2-1-0.xsd" ODMVersion="1.3.2" FileType="Snapshot" FileOID="TROPIC_ADAM_Metadata_v2.1" CreationDateTime="2026-06-12T21:52:12" AsOfDateTime="2026-07-09T11:40:16" Originator="Antony Bevan, Clinical Programming" def:Context="Submission"><Study OID="STDY.TROPIC">
    <GlobalVariables>
      <StudyName>TROPIC (EFC6193 / XRP6258)</StudyName>
      <StudyDescription>Cabazitaxel vs Mitoxantrone in mCRPC progressing after docetaxel (NCT00417079).</StudyDescription>
      <ProtocolName>EFC6193</ProtocolName>
    </GlobalVariables>
  <MetaDataVersion OID="MDV.TROPIC_NCT00417079.ADAM.1.3" Name="TROPIC Trial ADaM Metadata Specification" Description="Metadata specification for TROPIC Phase III re-analysis ADaM datasets" def:DefineVersion="2.1.0">
    <def:Standards>
      <def:Standard OID="STD.ADaMIG.1.3" Name="ADaMIG" Type="IG" Version="1.3" Status="Final"/>
      <def:Standard OID="STD.ADaMCT.2026-03-27" Name="CDISC/NCI" Type="CT" PublishingSet="ADaM" Version="2026-03-27" Status="Final"/>
    </def:Standards>
    <def:ValueListDef OID="VL.ADLB.AVAL">
      <ItemRef ItemOID="IT.ADLB.AVAL.NEUT" Mandatory="No">
        <def:WhereClauseRef WhereClauseOID="WC.ADLB.PARAMCD.EQ.NEUT"/>
      </ItemRef>
      <ItemRef ItemOID="IT.ADLB.AVAL.ANCNADIR" Mandatory="No" MethodOID="MT.ANCNADIR">
        <def:WhereClauseRef WhereClauseOID="WC.ADLB.PARAMCD.EQ.ANCNADIR"/>
      </ItemRef>
      <ItemRef ItemOID="IT.ADLB.AVAL.PSA" Mandatory="No">
        <def:WhereClauseRef WhereClauseOID="WC.ADLB.PARAMCD.EQ.PSA"/>
      </ItemRef>
    </def:ValueListDef>
    <def:ValueListDef OID="VL.ADEX.AVAL">
      <ItemRef ItemOID="IT.ADEX.AVAL.RDI" Mandatory="No" MethodOID="MT.RDI">
        <def:WhereClauseRef WhereClauseOID="WC.ADEX.PARAMCD.EQ.RDI"/>
      </ItemRef>
      <ItemRef ItemOID="IT.ADEX.AVAL.NCYCLE" Mandatory="No" MethodOID="MT.NCYCLE">
        <def:WhereClauseRef WhereClauseOID="WC.ADEX.PARAMCD.EQ.NCYCLE"/>
      </ItemRef>
    </def:ValueListDef>
    <def:ValueListDef OID="VL.ADTTE.AVAL">
      <ItemRef ItemOID="IT.ADTTE.AVAL.OS" Mandatory="No">
        <def:WhereClauseRef WhereClauseOID="WC.ADTTE.PARAMCD.EQ.OS"/>
      </ItemRef>
      <ItemRef ItemOID="IT.ADTTE.AVAL.PFS" Mandatory="No">
        <def:WhereClauseRef WhereClauseOID="WC.ADTTE.PARAMCD.EQ.PFS"/>
      </ItemRef>
    </def:ValueListDef>
    <def:WhereClauseDef OID="WC.ADLB.PARAMCD.EQ.NEUT">
      <RangeCheck Comparator="EQ" def:ItemOID="IT.ADLB.PARAMCD" SoftHard="Soft">
        <CheckValue>NEUT</CheckValue>
      </RangeCheck>
    </def:WhereClauseDef>
    <def:WhereClauseDef OID="WC.ADLB.PARAMCD.EQ.ANCNADIR">
      <RangeCheck Comparator="EQ" def:ItemOID="IT.ADLB.PARAMCD" SoftHard="Soft">
        <CheckValue>ANCNADIR</CheckValue>
      </RangeCheck>
    </def:WhereClauseDef>
    <def:WhereClauseDef OID="WC.ADLB.PARAMCD.EQ.PSA">
      <RangeCheck Comparator="EQ" def:ItemOID="IT.ADLB.PARAMCD" SoftHard="Soft">
        <CheckValue>PSA</CheckValue>
      </RangeCheck>
    </def:WhereClauseDef>
    <def:WhereClauseDef OID="WC.ADEX.PARAMCD.EQ.RDI">
      <RangeCheck Comparator="EQ" def:ItemOID="IT.ADEX.PARAMCD" SoftHard="Soft">
        <CheckValue>RDI</CheckValue>
      </RangeCheck>
    </def:WhereClauseDef>
    <def:WhereClauseDef OID="WC.ADEX.PARAMCD.EQ.NCYCLE">
      <RangeCheck Comparator="EQ" def:ItemOID="IT.ADEX.PARAMCD" SoftHard="Soft">
        <CheckValue>NCYCLE</CheckValue>
      </RangeCheck>
    </def:WhereClauseDef>
    <def:WhereClauseDef OID="WC.ADTTE.PARAMCD.EQ.OS">
      <RangeCheck Comparator="EQ" def:ItemOID="IT.ADTTE.PARAMCD" SoftHard="Soft">
        <CheckValue>OS</CheckValue>
      </RangeCheck>
    </def:WhereClauseDef>
    <def:WhereClauseDef OID="WC.ADTTE.PARAMCD.EQ.PFS">
      <RangeCheck Comparator="EQ" def:ItemOID="IT.ADTTE.PARAMCD" SoftHard="Soft">
        <CheckValue>PFS</CheckValue>
      </RangeCheck>
    </def:WhereClauseDef>
    <def:WhereClauseDef OID="WC.ADTTE.PARAMCD.EQ.TTPSA">
      <RangeCheck Comparator="EQ" def:ItemOID="IT.ADTTE.PARAMCD" SoftHard="Soft">
        <CheckValue>TTPSA</CheckValue>
      </RangeCheck>
    </def:WhereClauseDef>
    <def:WhereClauseDef OID="WC.ADTTE.PARAMCD.EQ.TTUMOR">
      <RangeCheck Comparator="EQ" def:ItemOID="IT.ADTTE.PARAMCD" SoftHard="Soft">
        <CheckValue>TTUMOR</CheckValue>
      </RangeCheck>
    </def:WhereClauseDef>
    <def:WhereClauseDef OID="WC.ADAE.TRTEMFL.EQ.Y">
      <RangeCheck Comparator="EQ" def:ItemOID="IT.ADAE.TRTEMFL" SoftHard="Soft">
        <CheckValue>Y</CheckValue>
      </RangeCheck>
    </def:WhereClauseDef>
    <ItemGroupDef OID="IG.ADSL" Name="ADSL" Repeating="No" IsReferenceData="No" Purpose="Analysis" def:Structure="One record per subject" def:ArchiveLocationID="LF.ADSL" def:StandardOID="STD.ADaMIG.1.3">
      <Description>
        <TranslatedText xml:lang="en">Subject-level characteristics, treatment allocations, survival, and baseline covariates.</TranslatedText>
      </Description>
      <ItemRef ItemOID="IT.ADSL.STUDYID" Mandatory="Yes" OrderNumber="1"/>
      <ItemRef ItemOID="IT.ADSL.USUBJID" Mandatory="Yes" OrderNumber="2"/>
      <ItemRef ItemOID="IT.ADSL.SUBJID" Mandatory="Yes" OrderNumber="3"/>
      <ItemRef ItemOID="IT.ADSL.SITEID" Mandatory="Yes" OrderNumber="4"/>
      <ItemRef ItemOID="IT.ADSL.AGE" Mandatory="Yes" OrderNumber="5"/>
      <ItemRef ItemOID="IT.ADSL.AGEGR1" Mandatory="Yes" OrderNumber="6"/>
      <ItemRef ItemOID="IT.ADSL.AGEGR1N" Mandatory="Yes" OrderNumber="7"/>
      <ItemRef ItemOID="IT.ADSL.RACE" Mandatory="Yes" OrderNumber="8"/>
      <ItemRef ItemOID="IT.ADSL.ETHNIC" Mandatory="No" OrderNumber="9"/>
      <ItemRef ItemOID="IT.ADSL.SEX" Mandatory="Yes" OrderNumber="10"/>
      <ItemRef ItemOID="IT.ADSL.TRT01P" Mandatory="Yes" OrderNumber="11"/>
      <ItemRef ItemOID="IT.ADSL.TRT01PN" Mandatory="Yes" OrderNumber="12"/>
      <ItemRef ItemOID="IT.ADSL.TRT01A" Mandatory="Yes" OrderNumber="13"/>
      <ItemRef ItemOID="IT.ADSL.TRT01AN" Mandatory="Yes" OrderNumber="14"/>
      <ItemRef ItemOID="IT.ADSL.RANDDT" Mandatory="Yes" OrderNumber="15"/>
      <ItemRef ItemOID="IT.ADSL.TRTSDT" Mandatory="Yes" MethodOID="MT.TRTSDT" OrderNumber="16"/>
      <ItemRef ItemOID="IT.ADSL.TRTEDT" Mandatory="No" MethodOID="MT.TRTEDT" OrderNumber="17"/>
      <ItemRef ItemOID="IT.ADSL.TRTDURD" Mandatory="No" MethodOID="MT.TRTDURD" OrderNumber="18"/>
      <ItemRef ItemOID="IT.ADSL.ITTFL" Mandatory="Yes" MethodOID="MT.ITTFL" OrderNumber="19"/>
      <ItemRef ItemOID="IT.ADSL.SAFFL" Mandatory="Yes" MethodOID="MT.SAFFL" OrderNumber="20"/>
      <ItemRef ItemOID="IT.ADSL.PPROTFL" Mandatory="Yes" OrderNumber="21"/>
      <ItemRef ItemOID="IT.ADSL.DTHFL" Mandatory="Yes" OrderNumber="22"/>
      <ItemRef ItemOID="IT.ADSL.DTHDT" Mandatory="No" OrderNumber="23" MethodOID="MT.DTHDT"/>
      <ItemRef ItemOID="IT.ADSL.DTHCAUS" Mandatory="No" OrderNumber="24"/>
      <ItemRef ItemOID="IT.ADSL.LSTALVDT" Mandatory="Yes" OrderNumber="25" MethodOID="MT.LSTALVDT"/>
      <ItemRef ItemOID="IT.ADSL.ECOGBL" Mandatory="No" MethodOID="MT.ECOGBL" OrderNumber="26"/>
      <ItemRef ItemOID="IT.ADSL.MEASDISF" Mandatory="No" MethodOID="MT.MEASDISF" OrderNumber="27"/>
      <ItemRef ItemOID="IT.ADSL.VISCFL" Mandatory="No" OrderNumber="28"/>
      <ItemRef ItemOID="IT.ADSL.PAINBL" Mandatory="No" MethodOID="MT.PAINBL" OrderNumber="29"/>
      <ItemRef ItemOID="IT.ADSL.PSABL" Mandatory="No" OrderNumber="30"/>
      <ItemRef ItemOID="IT.ADSL.ALPBL" Mandatory="No" OrderNumber="31"/>
      <ItemRef ItemOID="IT.ADSL.ALBBL" Mandatory="No" OrderNumber="32"/>
      <ItemRef ItemOID="IT.ADSL.LDHBL" Mandatory="No" OrderNumber="33"/>
      <ItemRef ItemOID="IT.ADSL.HGBBL" Mandatory="No" OrderNumber="34"/>
      <ItemRef ItemOID="IT.ADSL.DOCPROG" Mandatory="No" OrderNumber="35"/>
      <ItemRef ItemOID="IT.ADSL.DOCRESP" Mandatory="No" OrderNumber="36"/>
      <ItemRef ItemOID="IT.ADSL.ECOGBLIF" Mandatory="No" OrderNumber="37" MethodOID="MT.ECOGBLIF"/>
      <ItemRef ItemOID="IT.ADSL.PSABLIF" Mandatory="No" OrderNumber="38" MethodOID="MT.PSABLIF"/>
      <ItemRef ItemOID="IT.ADSL.ALPBLIF" Mandatory="No" OrderNumber="39" MethodOID="MT.ALPBLIF"/>
      <ItemRef ItemOID="IT.ADSL.HGBBLIF" Mandatory="No" OrderNumber="40" MethodOID="MT.HGBBLIF"/>
      <ItemRef ItemOID="IT.ADSL.ALBBLIF" Mandatory="No" OrderNumber="41" MethodOID="MT.ALBBLIF"/>
      <ItemRef ItemOID="IT.ADSL.LDHBLIF" Mandatory="No" OrderNumber="42" MethodOID="MT.LDHBLIF"/>
      <def:Class Name="SUBJECT LEVEL ANALYSIS DATASET"/>
      <def:leaf ID="LF.ADSL" xlink:href="adsl.xpt">
        <def:title>adsl.xpt</def:title>
      </def:leaf>
    </ItemGroupDef>
    <ItemGroupDef OID="IG.ADEX" Name="ADEX" Repeating="Yes" IsReferenceData="No" Purpose="Analysis" def:Structure="One record per subject per parameter per visit" def:ArchiveLocationID="LF.ADEX" def:StandardOID="STD.ADaMIG.1.3">
      <Description>
        <TranslatedText xml:lang="en">Cycle-level actual dose performance, cumulative exposure, actual/planned dose intensities, and RDI calculations.</TranslatedText>
      </Description>
      <ItemRef ItemOID="IT.ADEX.STUDYID" Mandatory="Yes" OrderNumber="1"/>
      <ItemRef ItemOID="IT.ADEX.USUBJID" Mandatory="Yes" OrderNumber="2"/>
      <ItemRef ItemOID="IT.ADEX.SUBJID" Mandatory="Yes" OrderNumber="3"/>
      <ItemRef ItemOID="IT.ADEX.TRT01P" Mandatory="Yes" OrderNumber="4"/>
      <ItemRef ItemOID="IT.ADEX.TRT01PN" Mandatory="Yes" OrderNumber="5"/>
      <ItemRef ItemOID="IT.ADEX.TRTSDT" Mandatory="Yes" OrderNumber="6"/>
      <ItemRef ItemOID="IT.ADEX.PARAMCD" Mandatory="Yes" OrderNumber="7"/>
      <ItemRef ItemOID="IT.ADEX.PARAM" Mandatory="Yes" OrderNumber="8"/>
      <ItemRef ItemOID="IT.ADEX.PARCAT1" Mandatory="Yes" OrderNumber="9"/>
      <ItemRef ItemOID="IT.ADEX.AVAL" Mandatory="No" OrderNumber="10" MethodOID="MT.ADEX_AVAL"/>
      <ItemRef ItemOID="IT.ADEX.AVALC" Mandatory="No" OrderNumber="11" MethodOID="MT.ADEX_AVALC"/>
      <ItemRef ItemOID="IT.ADEX.AVISIT" Mandatory="Yes" OrderNumber="12"/>
      <ItemRef ItemOID="IT.ADEX.PARAMN" Mandatory="No" OrderNumber="13" MethodOID="MT.ADEX_PARAMN"/>
      <ItemRef ItemOID="IT.ADEX.AVISITN" Mandatory="No" OrderNumber="14" MethodOID="MT.ADEX_AVISITN"/>
      <def:Class Name="BASIC DATA STRUCTURE"/>
      <def:leaf ID="LF.ADEX" xlink:href="adex.xpt">
        <def:title>adex.xpt</def:title>
      </def:leaf>
    </ItemGroupDef>
    <ItemGroupDef OID="IG.ADCM" Name="ADCM" Repeating="Yes" IsReferenceData="No" Purpose="Analysis" def:Structure="One record per subject per medication" def:ArchiveLocationID="LF.ADCM" def:StandardOID="STD.ADaMIG.1.3">
      <Description>
        <TranslatedText xml:lang="en">Concomitant medication usage including G-CSF prophylaxis markers, prednisone compliance, and NACT timelines.</TranslatedText>
      </Description>
      <ItemRef ItemOID="IT.ADCM.STUDYID" Mandatory="Yes" OrderNumber="1"/>
      <ItemRef ItemOID="IT.ADCM.USUBJID" Mandatory="Yes" OrderNumber="2"/>
      <ItemRef ItemOID="IT.ADCM.CMDECOD" Mandatory="Yes" OrderNumber="3"/>
      <ItemRef ItemOID="IT.ADCM.CMCAT" Mandatory="Yes" OrderNumber="4"/>
      <ItemRef ItemOID="IT.ADCM.CMINDC" Mandatory="No" OrderNumber="5"/>
      <ItemRef ItemOID="IT.ADCM.ASTDT" Mandatory="No" OrderNumber="6" MethodOID="MT.ADCM_ASTDT"/>
      <ItemRef ItemOID="IT.ADCM.AENDT" Mandatory="No" OrderNumber="7" MethodOID="MT.ADCM_AENDT"/>
      <ItemRef ItemOID="IT.ADCM.CMTRT" Mandatory="Yes" OrderNumber="8"/>
      <ItemRef ItemOID="IT.ADCM.ASTDY" Mandatory="No" OrderNumber="9" MethodOID="MT.ADCM_ASTDY"/>
      <ItemRef ItemOID="IT.ADCM.GCSFFL" Mandatory="No" OrderNumber="10"/>
      <ItemRef ItemOID="IT.ADCM.GCSFPRFL" Mandatory="No" OrderNumber="11"/>
      <ItemRef ItemOID="IT.ADCM.NACTFL" Mandatory="No" OrderNumber="12"/>
      <ItemRef ItemOID="IT.ADCM.NACTDT" Mandatory="No" OrderNumber="13"/>
      <ItemRef ItemOID="IT.ADCM.PREDNFL" Mandatory="No" OrderNumber="14"/>
      <ItemRef ItemOID="IT.ADCM.TRTEMFL" Mandatory="No" OrderNumber="15"/>
      <def:Class Name="OCCURRENCE DATA STRUCTURE"/>
      <def:leaf ID="LF.ADCM" xlink:href="adcm.xpt">
        <def:title>adcm.xpt</def:title>
      </def:leaf>
    </ItemGroupDef>
    <ItemGroupDef OID="IG.ADAE" Name="ADAE" Repeating="Yes" IsReferenceData="No" Purpose="Analysis" def:Structure="One record per subject per adverse event" def:ArchiveLocationID="LF.ADAE" def:StandardOID="STD.ADaMIG.1.3">
      <Description>
        <TranslatedText xml:lang="en">Treatment-emergent adverse events, severity classifications, serious AEs, and custom myelosuppressive episode merging.</TranslatedText>
      </Description>
      <ItemRef ItemOID="IT.ADAE.STUDYID" Mandatory="Yes" OrderNumber="1"/>
      <ItemRef ItemOID="IT.ADAE.USUBJID" Mandatory="Yes" OrderNumber="2"/>
      <ItemRef ItemOID="IT.ADAE.AEDECOD" Mandatory="Yes" OrderNumber="3"/>
      <ItemRef ItemOID="IT.ADAE.AEBODSYS" Mandatory="Yes" OrderNumber="4"/>
      <ItemRef ItemOID="IT.ADAE.AEHLT" Mandatory="No" OrderNumber="5"/>
      <ItemRef ItemOID="IT.ADAE.AESEV" Mandatory="No" OrderNumber="6"/>
      <ItemRef ItemOID="IT.ADAE.ATOXGR" Mandatory="No" OrderNumber="7" MethodOID="MT.ADAE_ATOXGR"/>
      <ItemRef ItemOID="IT.ADAE.AESSER" Mandatory="No" OrderNumber="8"/>
      <ItemRef ItemOID="IT.ADAE.AEREL" Mandatory="No" OrderNumber="9"/>
      <ItemRef ItemOID="IT.ADAE.ASTDT" Mandatory="No" OrderNumber="10"/>
      <ItemRef ItemOID="IT.ADAE.AENDT" Mandatory="No" OrderNumber="11"/>
      <ItemRef ItemOID="IT.ADAE.ASTDY" Mandatory="No" OrderNumber="12"/>
      <ItemRef ItemOID="IT.ADAE.AENDY" Mandatory="No" OrderNumber="13"/>
      <ItemRef ItemOID="IT.ADAE.AEACN" Mandatory="No" OrderNumber="14"/>
      <ItemRef ItemOID="IT.ADAE.AEOUT" Mandatory="No" OrderNumber="15"/>
      <ItemRef ItemOID="IT.ADAE.CQ02NAM" Mandatory="No" OrderNumber="16"/>
      <ItemRef ItemOID="IT.ADAE.CQ02CD" Mandatory="No" OrderNumber="17"/>
      <ItemRef ItemOID="IT.ADAE.CQ02SC" Mandatory="No" OrderNumber="18"/>
      <ItemRef ItemOID="IT.ADAE.CIAESEQ" Mandatory="No" OrderNumber="19"/>
      <ItemRef ItemOID="IT.ADAE.CIAESDT" Mandatory="No" OrderNumber="20"/>
      <ItemRef ItemOID="IT.ADAE.CIAEEDT" Mandatory="No" OrderNumber="21"/>
      <ItemRef ItemOID="IT.ADAE.CIAEDUR" Mandatory="No" OrderNumber="22"/>
      <ItemRef ItemOID="IT.ADAE.AEOCCFL" Mandatory="No" OrderNumber="23"/>
      <ItemRef ItemOID="IT.ADAE.TRTEMFL" Mandatory="No" OrderNumber="24"/>
      <ItemRef ItemOID="IT.ADAE.ADURN" Mandatory="No" OrderNumber="25"/>
      <ItemRef ItemOID="IT.ADAE.ADURU" Mandatory="No" OrderNumber="26"/>
      <ItemRef ItemOID="IT.ADAE.AESEQ" Mandatory="No" OrderNumber="27"/>
      <ItemRef ItemOID="IT.ADAE.TRTA" Mandatory="Yes" OrderNumber="28"/>
      <ItemRef ItemOID="IT.ADAE.TRTAN" Mandatory="Yes" OrderNumber="29"/>
      <def:Class Name="OCCURRENCE DATA STRUCTURE"/>
      <def:leaf ID="LF.ADAE" xlink:href="adae.xpt">
        <def:title>adae.xpt</def:title>
      </def:leaf>
    </ItemGroupDef>
    <ItemGroupDef OID="IG.ADLB" Name="ADLB" Repeating="Yes" IsReferenceData="No" Purpose="Analysis" def:Structure="One record per subject per parameter per visit" def:ArchiveLocationID="LF.ADLB" def:StandardOID="STD.ADaMIG.1.3">
      <Description>
        <TranslatedText xml:lang="en">Longitudinal absolute laboratory measurements, CTCAE grading, Worst-in-window flags (ANL01FL), and continuous nadir models.</TranslatedText>
      </Description>
      <ItemRef ItemOID="IT.ADLB.STUDYID" Mandatory="Yes" OrderNumber="1"/>
      <ItemRef ItemOID="IT.ADLB.USUBJID" Mandatory="Yes" OrderNumber="2"/>
      <ItemRef ItemOID="IT.ADLB.SUBJID" Mandatory="Yes" OrderNumber="3"/>
      <ItemRef ItemOID="IT.ADLB.TRT01P" Mandatory="Yes" OrderNumber="4"/>
      <ItemRef ItemOID="IT.ADLB.TRTSDT" Mandatory="Yes" OrderNumber="5"/>
      <ItemRef ItemOID="IT.ADLB.PARAMCD" Mandatory="Yes" OrderNumber="6"/>
      <ItemRef ItemOID="IT.ADLB.PARAM" Mandatory="Yes" OrderNumber="7"/>
      <ItemRef ItemOID="IT.ADLB.PARAMN" Mandatory="Yes" OrderNumber="8"/>
      <ItemRef ItemOID="IT.ADLB.PARCAT1" Mandatory="Yes" OrderNumber="9"/>
      <ItemRef ItemOID="IT.ADLB.AVAL" Mandatory="No" OrderNumber="10" MethodOID="MT.ADLB_AVAL"/>
      <ItemRef ItemOID="IT.ADLB.AVALC" Mandatory="No" OrderNumber="11" MethodOID="MT.ADLB_AVALC"/>
      <ItemRef ItemOID="IT.ADLB.LBNRLO" Mandatory="No" OrderNumber="12"/>
      <ItemRef ItemOID="IT.ADLB.LBNRHI" Mandatory="No" OrderNumber="13"/>
      <ItemRef ItemOID="IT.ADLB.LBNRIND" Mandatory="No" OrderNumber="14"/>
      <ItemRef ItemOID="IT.ADLB.AVISIT" Mandatory="Yes" OrderNumber="15"/>
      <ItemRef ItemOID="IT.ADLB.AVISITN" Mandatory="Yes" OrderNumber="16"/>
      <ItemRef ItemOID="IT.ADLB.AWDIST" Mandatory="No" OrderNumber="17"/>
      <ItemRef ItemOID="IT.ADLB.ATOXGR" Mandatory="No" OrderNumber="18" MethodOID="MT.ADLB_ATOXGR"/>
      <ItemRef ItemOID="IT.ADLB.BASE" Mandatory="No" OrderNumber="19" MethodOID="MT.ADLB_BASE"/>
      <ItemRef ItemOID="IT.ADLB.BASEC" Mandatory="No" OrderNumber="20" MethodOID="MT.ADLB_BASEC"/>
      <ItemRef ItemOID="IT.ADLB.BTOXGR" Mandatory="No" OrderNumber="21"/>
      <ItemRef ItemOID="IT.ADLB.CHG" Mandatory="No" OrderNumber="22" MethodOID="MT.ADLB_CHG"/>
      <ItemRef ItemOID="IT.ADLB.PCHG" Mandatory="No" OrderNumber="23" MethodOID="MT.ADLB_PCHG"/>
      <ItemRef ItemOID="IT.ADLB.ANL01FL" Mandatory="No" OrderNumber="24"/>
      <ItemRef ItemOID="IT.ADLB.BASEFL" Mandatory="No" OrderNumber="25" MethodOID="MT.ADLB_BASEFL"/>
      <ItemRef ItemOID="IT.ADLB.LBDY" Mandatory="No" OrderNumber="26"/>
      <ItemRef ItemOID="IT.ADLB.ADT" Mandatory="No" OrderNumber="27" MethodOID="MT.ADLB_ADT"/>
      <def:Class Name="BASIC DATA STRUCTURE"/>
      <def:leaf ID="LF.ADLB" xlink:href="adlb.xpt">
        <def:title>adlb.xpt</def:title>
      </def:leaf>
    </ItemGroupDef>
    <ItemGroupDef OID="IG.ADRS" Name="ADRS" Repeating="Yes" IsReferenceData="No" Purpose="Analysis" def:Structure="One record per subject per parameter per visit" def:ArchiveLocationID="LF.ADRS" def:StandardOID="STD.ADaMIG.1.3">
      <Description>
        <TranslatedText xml:lang="en">RECIST v1.0 soft-tissue assessments, bone-lesion scan progression tracking, objective responses, and PSA progressions.</TranslatedText>
      </Description>
      <ItemRef ItemOID="IT.ADRS.STUDYID" Mandatory="Yes" OrderNumber="1"/>
      <ItemRef ItemOID="IT.ADRS.USUBJID" Mandatory="Yes" OrderNumber="2"/>
      <ItemRef ItemOID="IT.ADRS.SUBJID" Mandatory="Yes" OrderNumber="3"/>
      <ItemRef ItemOID="IT.ADRS.TRT01P" Mandatory="Yes" OrderNumber="4"/>
      <ItemRef ItemOID="IT.ADRS.TRTSDT" Mandatory="Yes" OrderNumber="5"/>
      <ItemRef ItemOID="IT.ADRS.PARAMCD" Mandatory="Yes" OrderNumber="6"/>
      <ItemRef ItemOID="IT.ADRS.PARAM" Mandatory="Yes" OrderNumber="7"/>
      <ItemRef ItemOID="IT.ADRS.AVALC" Mandatory="No" OrderNumber="8" MethodOID="MT.ADRS_AVALC"/>
      <ItemRef ItemOID="IT.ADRS.ADT" Mandatory="Yes" OrderNumber="9"/>
      <ItemRef ItemOID="IT.ADRS.ADY" Mandatory="No" OrderNumber="10"/>
      <ItemRef ItemOID="IT.ADRS.VISIT" Mandatory="Yes" OrderNumber="11"/>
      <ItemRef ItemOID="IT.ADRS.ANL01FL" Mandatory="No" OrderNumber="12"/>
      <ItemRef ItemOID="IT.ADRS.AVAL" Mandatory="No" OrderNumber="13" MethodOID="MT.ADRS_AVAL"/>
      <def:Class Name="BASIC DATA STRUCTURE"/>
      <def:leaf ID="LF.ADRS" xlink:href="adrs.xpt">
        <def:title>adrs.xpt</def:title>
      </def:leaf>
    </ItemGroupDef>
    <ItemGroupDef OID="IG.ADTTE" Name="ADTTE" Repeating="Yes" IsReferenceData="No" Purpose="Analysis" def:Structure="One record per subject per time-to-event parameter" def:ArchiveLocationID="LF.ADTTE" def:StandardOID="STD.ADaMIG.1.3">
      <Description>
        <TranslatedText xml:lang="en">Survival endpoints including Overall Survival (OS), Progression-Free Survival (PFS), TTPSA, and time-to-SAE endpoints.</TranslatedText>
      </Description>
      <ItemRef ItemOID="IT.ADTTE.STUDYID" Mandatory="Yes" OrderNumber="1"/>
      <ItemRef ItemOID="IT.ADTTE.USUBJID" Mandatory="Yes" OrderNumber="2"/>
      <ItemRef ItemOID="IT.ADTTE.SUBJID" Mandatory="Yes" OrderNumber="3"/>
      <ItemRef ItemOID="IT.ADTTE.SITEID" Mandatory="Yes" OrderNumber="4"/>
      <ItemRef ItemOID="IT.ADTTE.TRT01P" Mandatory="Yes" OrderNumber="5"/>
      <ItemRef ItemOID="IT.ADTTE.TRT01PN" Mandatory="Yes" OrderNumber="6"/>
      <ItemRef ItemOID="IT.ADTTE.ITTFL" Mandatory="Yes" OrderNumber="7" MethodOID="MT.ADTTE_ITTFL"/>
      <ItemRef ItemOID="IT.ADTTE.SAFFL" Mandatory="Yes" OrderNumber="8" MethodOID="MT.ADTTE_SAFFL"/>
      <ItemRef ItemOID="IT.ADTTE.PARAMCD" Mandatory="Yes" OrderNumber="9"/>
      <ItemRef ItemOID="IT.ADTTE.PARAM" Mandatory="Yes" OrderNumber="10"/>
      <ItemRef ItemOID="IT.ADTTE.PARAMN" Mandatory="No" OrderNumber="11" MethodOID="MT.ADTTE_PARAMN"/>
      <ItemRef ItemOID="IT.ADTTE.PARCAT1" Mandatory="No" OrderNumber="12" MethodOID="MT.ADTTE_PARCAT1"/>
      <ItemRef ItemOID="IT.ADTTE.STARTDT" Mandatory="Yes" OrderNumber="13"/>
      <ItemRef ItemOID="IT.ADTTE.ADT" Mandatory="Yes" OrderNumber="14"/>
      <ItemRef ItemOID="IT.ADTTE.CNSR" Mandatory="Yes" MethodOID="MT.CNSR_TTE" OrderNumber="15"/>
      <ItemRef ItemOID="IT.ADTTE.EVNTDESC" Mandatory="No" OrderNumber="16"/>
      <ItemRef ItemOID="IT.ADTTE.CNSDTDSC" Mandatory="No" OrderNumber="17"/>
      <ItemRef ItemOID="IT.ADTTE.AVAL" Mandatory="Yes" MethodOID="MT.AVAL_TTE" OrderNumber="18"/>
      <ItemRef ItemOID="IT.ADTTE.AVALU" Mandatory="No" OrderNumber="19" MethodOID="MT.ADTTE_AVALU"/>
      <def:Class Name="BASIC DATA STRUCTURE"/>
      <def:leaf ID="LF.ADTTE" xlink:href="adtte.xpt">
        <def:title>adtte.xpt</def:title>
      </def:leaf>
    </ItemGroupDef>
    <ItemDef OID="IT.ADSL.STUDYID" Name="STUDYID" DataType="text" Length="40">
      <Description><TranslatedText xml:lang="en">Study Identifier</TranslatedText></Description><def:Origin Type="Protocol" Source="Sponsor"/>
    </ItemDef>
    <ItemDef OID="IT.ADSL.USUBJID" Name="USUBJID" DataType="text" Length="40">
      <Description><TranslatedText xml:lang="en">Unique Subject Identifier</TranslatedText></Description><def:Origin Type="Collected" Source="Sponsor"/>
    </ItemDef>
    <ItemDef OID="IT.ADSL.SUBJID" Name="SUBJID" DataType="text" Length="20">
      <Description><TranslatedText xml:lang="en">Subject Identifier for the Study</TranslatedText></Description><def:Origin Type="Collected" Source="Sponsor"/>
    </ItemDef>
    <ItemDef OID="IT.ADSL.SITEID" Name="SITEID" DataType="text" Length="10">
      <Description><TranslatedText xml:lang="en">Study Site Identifier</TranslatedText></Description><def:Origin Type="Collected" Source="Sponsor"/>
    </ItemDef>
    <ItemDef OID="IT.ADSL.AGE" Name="AGE" DataType="float" Length="8">
      <Description><TranslatedText xml:lang="en">Age</TranslatedText></Description><def:Origin Type="Collected" Source="Sponsor"/>
    </ItemDef>
    <ItemDef OID="IT.ADSL.AGEGR1" Name="AGEGR1" DataType="text" Length="20">
      <Description><TranslatedText xml:lang="en">Pooled Age Group 1</TranslatedText></Description><CodeListRef CodeListOID="CL.AGEGR"/>
      <def:Origin Type="Collected" Source="Sponsor"/>
    </ItemDef>
    <ItemDef OID="IT.ADSL.AGEGR1N" Name="AGEGR1N" DataType="float" Length="8">
      <Description><TranslatedText xml:lang="en">Pooled Age Group 1 (N)</TranslatedText></Description><def:Origin Type="Collected" Source="Sponsor"/>
    </ItemDef>
    <ItemDef OID="IT.ADSL.RACE" Name="RACE" DataType="text" Length="40">
      <Description><TranslatedText xml:lang="en">Race</TranslatedText></Description><def:Origin Type="Collected" Source="Sponsor"/>
    </ItemDef>
    <ItemDef OID="IT.ADSL.ETHNIC" Name="ETHNIC" DataType="text" Length="40">
      <Description><TranslatedText xml:lang="en">Ethnicity</TranslatedText></Description><def:Origin Type="Assigned" Source="Sponsor"/>
    </ItemDef>
    <ItemDef OID="IT.ADSL.SEX" Name="SEX" DataType="text" Length="2">
      <Description><TranslatedText xml:lang="en">Sex</TranslatedText></Description><CodeListRef CodeListOID="CL.SEX"/>
      <def:Origin Type="Collected" Source="Sponsor"/>
    </ItemDef>
    <ItemDef OID="IT.ADSL.TRT01P" Name="TRT01P" DataType="text" Length="40">
      <Description><TranslatedText xml:lang="en">Planned Treatment for Period 01</TranslatedText></Description><CodeListRef CodeListOID="CL.TRT"/>
      <def:Origin Type="Assigned" Source="Sponsor"/>
    </ItemDef>
    <ItemDef OID="IT.ADSL.TRT01PN" Name="TRT01PN" DataType="float" Length="8">
      <Description><TranslatedText xml:lang="en">Planned Treatment for Period 01 (N)</TranslatedText></Description><CodeListRef CodeListOID="CL.TRT01PN"/>
      <def:Origin Type="Assigned" Source="Sponsor"/>
    </ItemDef>
    <ItemDef OID="IT.ADSL.TRT01A" Name="TRT01A" DataType="text" Length="40">
      <Description><TranslatedText xml:lang="en">Actual Treatment for Period 01</TranslatedText></Description><CodeListRef CodeListOID="CL.TRT"/>
      <def:Origin Type="Assigned" Source="Sponsor"/>
    </ItemDef>
    <ItemDef OID="IT.ADSL.TRT01AN" Name="TRT01AN" DataType="float" Length="8">
      <Description><TranslatedText xml:lang="en">Actual Treatment for Period 01 (N)</TranslatedText></Description><CodeListRef CodeListOID="CL.TRT01PN"/>
      <def:Origin Type="Assigned" Source="Sponsor"/>
    </ItemDef>
    <ItemDef OID="IT.ADSL.RANDDT" Name="RANDDT" DataType="date" Length="10">
      <Description><TranslatedText xml:lang="en">Randomization Date</TranslatedText></Description><def:Origin Type="Collected" Source="Sponsor"/>
    </ItemDef>
    <ItemDef OID="IT.ADSL.TRTSDT" Name="TRTSDT" DataType="date" Length="10">
      <Description><TranslatedText xml:lang="en">Date of First Exposure to Treatment</TranslatedText></Description><def:Origin Type="Derived" Source="Sponsor"/>
    </ItemDef>
    <ItemDef OID="IT.ADSL.TRTEDT" Name="TRTEDT" DataType="date" Length="10">
      <Description><TranslatedText xml:lang="en">Date of Last Exposure to Treatment</TranslatedText></Description><def:Origin Type="Derived" Source="Sponsor"/>
    </ItemDef>
    <ItemDef OID="IT.ADSL.TRTDURD" Name="TRTDURD" DataType="float" Length="8">
      <Description><TranslatedText xml:lang="en">Total Treatment Duration (Days)</TranslatedText></Description><def:Origin Type="Derived" Source="Sponsor"/>
    </ItemDef>
    <ItemDef OID="IT.ADSL.ITTFL" Name="ITTFL" DataType="text" Length="1">
      <Description><TranslatedText xml:lang="en">Intent-to-Treat Population Flag</TranslatedText></Description><CodeListRef CodeListOID="CL.NY"/>
      <def:Origin Type="Derived" Source="Sponsor"/>
    </ItemDef>
    <ItemDef OID="IT.ADSL.SAFFL" Name="SAFFL" DataType="text" Length="1">
      <Description><TranslatedText xml:lang="en">Safety Population Flag</TranslatedText></Description><CodeListRef CodeListOID="CL.NY"/>
      <def:Origin Type="Derived" Source="Sponsor"/>
    </ItemDef>
    <ItemDef OID="IT.ADSL.PPROTFL" Name="PPROTFL" DataType="text" Length="1">
      <Description><TranslatedText xml:lang="en">Per-Protocol Population Flag</TranslatedText></Description><CodeListRef CodeListOID="CL.NY"/>
      <def:Origin Type="Collected" Source="Sponsor"/>
    </ItemDef>
    <ItemDef OID="IT.ADSL.DTHFL" Name="DTHFL" DataType="text" Length="1">
      <Description><TranslatedText xml:lang="en">Subject Death Flag</TranslatedText></Description><CodeListRef CodeListOID="CL.NY"/>
      <def:Origin Type="Collected" Source="Sponsor"/>
    </ItemDef>
    <ItemDef OID="IT.ADSL.DTHDT" Name="DTHDT" DataType="date" Length="10">
      <Description><TranslatedText xml:lang="en">Date of Death</TranslatedText></Description><def:Origin Type="Derived" Source="Sponsor"/>
    </ItemDef>
    <ItemDef OID="IT.ADSL.DTHCAUS" Name="DTHCAUS" DataType="text" Length="200">
      <Description><TranslatedText xml:lang="en">Primary Cause of Death</TranslatedText></Description><def:Origin Type="Collected" Source="Sponsor"/>
    </ItemDef>
    <ItemDef OID="IT.ADSL.LSTALVDT" Name="LSTALVDT" DataType="date" Length="10">
      <Description><TranslatedText xml:lang="en">Date Last Known Alive</TranslatedText></Description><def:Origin Type="Derived" Source="Sponsor"/>
    </ItemDef>
    <ItemDef OID="IT.ADSL.ECOGBL" Name="ECOGBL" DataType="float" Length="8">
      <Description><TranslatedText xml:lang="en">Baseline ECOG Performance Status</TranslatedText></Description><def:Origin Type="Derived" Source="Sponsor"/>
    </ItemDef>
    <ItemDef OID="IT.ADSL.MEASDISF" Name="MEASDISF" DataType="text" Length="1">
      <Description><TranslatedText xml:lang="en">Baseline Measurable Disease Flag</TranslatedText></Description><CodeListRef CodeListOID="CL.NY"/>
      <def:Origin Type="Derived" Source="Sponsor"/>
    </ItemDef>
    <ItemDef OID="IT.ADSL.VISCFL" Name="VISCFL" DataType="text" Length="1">
      <Description><TranslatedText xml:lang="en">Baseline Visceral Metastasis Flag</TranslatedText></Description><CodeListRef CodeListOID="CL.NY"/>
      <def:Origin Type="Collected" Source="Sponsor"/>
    </ItemDef>
    <ItemDef OID="IT.ADSL.PAINBL" Name="PAINBL" DataType="text" Length="1">
      <Description><TranslatedText xml:lang="en">Baseline Pain Assessment Flag</TranslatedText></Description><CodeListRef CodeListOID="CL.NY"/>
      <def:Origin Type="Derived" Source="Sponsor"/>
    </ItemDef>
    <ItemDef OID="IT.ADSL.PSABL" Name="PSABL" DataType="float" Length="8">
      <Description><TranslatedText xml:lang="en">Baseline PSA (ug/L)</TranslatedText></Description><def:Origin Type="Collected" Source="Sponsor"/>
    </ItemDef>
    <ItemDef OID="IT.ADSL.ALPBL" Name="ALPBL" DataType="float" Length="8">
      <Description><TranslatedText xml:lang="en">Baseline Alkaline Phosphatase (U/L)</TranslatedText></Description><def:Origin Type="Collected" Source="Sponsor"/>
    </ItemDef>
    <ItemDef OID="IT.ADSL.ALBBL" Name="ALBBL" DataType="float" Length="8">
      <Description><TranslatedText xml:lang="en">Baseline Albumin (g/L)</TranslatedText></Description><def:Origin Type="Assigned" Source="Sponsor">
        <Description>
          <TranslatedText xml:lang="en">Not collected in the public MP SDTM release; left missing with blank imputation flag (see ADRG 5.1).</TranslatedText>
        </Description>
      </def:Origin>
    </ItemDef>
    <ItemDef OID="IT.ADSL.LDHBL" Name="LDHBL" DataType="float" Length="8">
      <Description><TranslatedText xml:lang="en">Baseline Lactate Dehydrogenase (U/L)</TranslatedText></Description><def:Origin Type="Assigned" Source="Sponsor">
        <Description>
          <TranslatedText xml:lang="en">Not collected in the public MP SDTM release; left missing with blank imputation flag (see ADRG 5.1).</TranslatedText>
        </Description>
      </def:Origin>
    </ItemDef>
    <ItemDef OID="IT.ADSL.HGBBL" Name="HGBBL" DataType="float" Length="8">
      <Description><TranslatedText xml:lang="en">Baseline Hemoglobin (g/dL)</TranslatedText></Description><def:Origin Type="Collected" Source="Sponsor"/>
    </ItemDef>
    <ItemDef OID="IT.ADSL.DOCPROG" Name="DOCPROG" DataType="text" Length="20">
      <Description><TranslatedText xml:lang="en">Docetaxel Prior Progression Class</TranslatedText></Description><def:Origin Type="Collected" Source="Sponsor"/>
    </ItemDef>
    <ItemDef OID="IT.ADSL.DOCRESP" Name="DOCRESP" DataType="text" Length="1">
      <Description><TranslatedText xml:lang="en">Docetaxel Prior Response Flag</TranslatedText></Description><CodeListRef CodeListOID="CL.NY"/>
      <def:Origin Type="Collected" Source="Sponsor"/>
    </ItemDef>
    <ItemDef OID="IT.ADSL.ECOGBLIF" Name="ECOGBLIF" DataType="text" Length="1">
      <Description><TranslatedText xml:lang="en">Baseline ECOG Imputed Flag</TranslatedText></Description><CodeListRef CodeListOID="CL.NY"/>
      <def:Origin Type="Derived" Source="Sponsor">
        <Description>
          <TranslatedText xml:lang="en">'Y' if ECOGBL was imputed to the protocol default (no baseline ECOG on file), else 'N'.</TranslatedText>
        </Description>
      </def:Origin>
    </ItemDef>
    <ItemDef OID="IT.ADSL.PSABLIF" Name="PSABLIF" DataType="text" Length="1">
      <Description><TranslatedText xml:lang="en">Baseline PSA Imputed Flag</TranslatedText></Description><CodeListRef CodeListOID="CL.NY"/>
      <def:Origin Type="Derived" Source="Sponsor">
        <Description>
          <TranslatedText xml:lang="en">'Y' if PSABL was imputed to the population-median fallback (no baseline PSA on file), else 'N'.</TranslatedText>
        </Description>
      </def:Origin>
    </ItemDef>
    <ItemDef OID="IT.ADSL.ALPBLIF" Name="ALPBLIF" DataType="text" Length="1">
      <Description><TranslatedText xml:lang="en">Baseline ALP Imputed Flag</TranslatedText></Description><CodeListRef CodeListOID="CL.NY"/>
      <def:Origin Type="Derived" Source="Sponsor">
        <Description>
          <TranslatedText xml:lang="en">'Y' if ALPBL was imputed to the population-median fallback (no baseline ALP on file), else 'N'.</TranslatedText>
        </Description>
      </def:Origin>
    </ItemDef>
    <ItemDef OID="IT.ADSL.HGBBLIF" Name="HGBBLIF" DataType="text" Length="1">
      <Description><TranslatedText xml:lang="en">Baseline Hemoglobin Imputed Flag</TranslatedText></Description><CodeListRef CodeListOID="CL.NY"/>
      <def:Origin Type="Derived" Source="Sponsor">
        <Description>
          <TranslatedText xml:lang="en">'Y' if HGBBL was imputed to the population-median fallback (no baseline hemoglobin on file), else 'N'.</TranslatedText>
        </Description>
      </def:Origin>
    </ItemDef>
    <ItemDef OID="IT.ADSL.ALBBLIF" Name="ALBBLIF" DataType="text" Length="1">
      <Description><TranslatedText xml:lang="en">Baseline Albumin Imputed Flag</TranslatedText></Description><CodeListRef CodeListOID="CL.NY"/>
      <def:Origin Type="Derived" Source="Sponsor">
        <Description>
          <TranslatedText xml:lang="en">Blank — ALBBL is not collected and is left missing (no imputation).</TranslatedText>
        </Description>
      </def:Origin>
    </ItemDef>
    <ItemDef OID="IT.ADSL.LDHBLIF" Name="LDHBLIF" DataType="text" Length="1">
      <Description><TranslatedText xml:lang="en">Baseline LDH Imputed Flag</TranslatedText></Description><CodeListRef CodeListOID="CL.NY"/>
      <def:Origin Type="Derived" Source="Sponsor">
        <Description>
          <TranslatedText xml:lang="en">Blank — LDHBL is not collected and is left missing (no imputation).</TranslatedText>
        </Description>
      </def:Origin>
    </ItemDef>
    <ItemDef OID="IT.ADEX.STUDYID" Name="STUDYID" DataType="text" Length="40">
      <Description><TranslatedText xml:lang="en">Study Identifier</TranslatedText></Description><def:Origin Type="Protocol" Source="Sponsor"/>
    </ItemDef>
    <ItemDef OID="IT.ADEX.USUBJID" Name="USUBJID" DataType="text" Length="40">
      <Description><TranslatedText xml:lang="en">Unique Subject Identifier</TranslatedText></Description><def:Origin Type="Collected" Source="Sponsor"/>
    </ItemDef>
    <ItemDef OID="IT.ADEX.SUBJID" Name="SUBJID" DataType="text" Length="20">
      <Description><TranslatedText xml:lang="en">Subject Identifier for the Study</TranslatedText></Description><def:Origin Type="Collected" Source="Sponsor"/>
    </ItemDef>
    <ItemDef OID="IT.ADEX.TRT01P" Name="TRT01P" DataType="text" Length="40">
      <Description><TranslatedText xml:lang="en">Planned Treatment for Period 01</TranslatedText></Description><CodeListRef CodeListOID="CL.TRT"/>
      <def:Origin Type="Assigned" Source="Sponsor"/>
    </ItemDef>
    <ItemDef OID="IT.ADEX.TRT01PN" Name="TRT01PN" DataType="float" Length="8">
      <Description><TranslatedText xml:lang="en">Planned Treatment for Period 01 (N)</TranslatedText></Description><CodeListRef CodeListOID="CL.TRT01PN"/>
      <def:Origin Type="Assigned" Source="Sponsor"/>
    </ItemDef>
    <ItemDef OID="IT.ADEX.TRTSDT" Name="TRTSDT" DataType="date" Length="10">
      <Description><TranslatedText xml:lang="en">Date of First Exposure to Treatment</TranslatedText></Description><def:Origin Type="Collected" Source="Sponsor"/>
    </ItemDef>
    <ItemDef OID="IT.ADEX.PARAMCD" Name="PARAMCD" DataType="text" Length="20">
      <Description><TranslatedText xml:lang="en">Parameter Code</TranslatedText></Description><CodeListRef CodeListOID="CL.PARAMCD"/>
      <def:Origin Type="Collected" Source="Sponsor"/>
    </ItemDef>
    <ItemDef OID="IT.ADEX.PARAM" Name="PARAM" DataType="text" Length="200">
      <Description><TranslatedText xml:lang="en">Parameter</TranslatedText></Description><def:Origin Type="Collected" Source="Sponsor"/>
    </ItemDef>
    <ItemDef OID="IT.ADEX.PARCAT1" Name="PARCAT1" DataType="text" Length="20">
      <Description><TranslatedText xml:lang="en">Parameter Category 1</TranslatedText></Description><def:Origin Type="Collected" Source="Sponsor"/>
    </ItemDef>
    <ItemDef OID="IT.ADEX.AVAL" Name="AVAL" DataType="float" Length="8">
      <Description><TranslatedText xml:lang="en">Analysis Value</TranslatedText></Description><def:ValueListRef ValueListOID="VL.ADEX.AVAL"/>
      <def:Origin Type="Derived" Source="Sponsor"/>
    </ItemDef>
    <ItemDef OID="IT.ADEX.AVALC" Name="AVALC" DataType="text" Length="100">
      <Description><TranslatedText xml:lang="en">Analysis Value (C)</TranslatedText></Description><def:Origin Type="Derived" Source="Sponsor"/>
    </ItemDef>
    <ItemDef OID="IT.ADEX.AVISIT" Name="AVISIT" DataType="text" Length="40">
      <Description><TranslatedText xml:lang="en">Analysis Visit</TranslatedText></Description><def:Origin Type="Collected" Source="Sponsor"/>
    </ItemDef>
    <ItemDef OID="IT.ADEX.PARAMN" Name="PARAMN" DataType="float" Length="8">
      <Description><TranslatedText xml:lang="en">Parameter (N)</TranslatedText></Description><def:Origin Type="Derived" Source="Sponsor"/>
    </ItemDef>
    <ItemDef OID="IT.ADEX.AVISITN" Name="AVISITN" DataType="float" Length="8">
      <Description><TranslatedText xml:lang="en">Analysis Visit (N)</TranslatedText></Description><def:Origin Type="Derived" Source="Sponsor"/>
    </ItemDef>
    <ItemDef OID="IT.ADCM.STUDYID" Name="STUDYID" DataType="text" Length="40">
      <Description><TranslatedText xml:lang="en">Study Identifier</TranslatedText></Description><def:Origin Type="Protocol" Source="Sponsor"/>
    </ItemDef>
    <ItemDef OID="IT.ADCM.USUBJID" Name="USUBJID" DataType="text" Length="40">
      <Description><TranslatedText xml:lang="en">Unique Subject Identifier</TranslatedText></Description><def:Origin Type="Collected" Source="Sponsor"/>
    </ItemDef>
    <ItemDef OID="IT.ADCM.CMDECOD" Name="CMDECOD" DataType="text" Length="100">
      <Description><TranslatedText xml:lang="en">Standardized Medication Name</TranslatedText></Description><def:Origin Type="Collected" Source="Sponsor"/>
    </ItemDef>
    <ItemDef OID="IT.ADCM.CMCAT" Name="CMCAT" DataType="text" Length="100">
      <Description><TranslatedText xml:lang="en">Category for Medication</TranslatedText></Description><def:Origin Type="Collected" Source="Sponsor"/>
    </ItemDef>
    <ItemDef OID="IT.ADCM.CMINDC" Name="CMINDC" DataType="text" Length="200">
      <Description><TranslatedText xml:lang="en">Indication</TranslatedText></Description><def:Origin Type="Collected" Source="Sponsor"/>
    </ItemDef>
    <ItemDef OID="IT.ADCM.ASTDT" Name="ASTDT" DataType="date" Length="10">
      <Description><TranslatedText xml:lang="en">Analysis Start Date</TranslatedText></Description><def:Origin Type="Derived" Source="Sponsor"/>
    </ItemDef>
    <ItemDef OID="IT.ADCM.AENDT" Name="AENDT" DataType="date" Length="10">
      <Description><TranslatedText xml:lang="en">Analysis End Date</TranslatedText></Description><def:Origin Type="Derived" Source="Sponsor"/>
    </ItemDef>
    <ItemDef OID="IT.ADCM.CMTRT" Name="CMTRT" DataType="text" Length="200">
      <Description><TranslatedText xml:lang="en">Reported Name of Drug, Med, or Therapy</TranslatedText></Description><def:Origin Type="Collected" Source="Sponsor"/>
    </ItemDef>
    <ItemDef OID="IT.ADCM.ASTDY" Name="ASTDY" DataType="float" Length="8">
      <Description><TranslatedText xml:lang="en">Analysis Start Day</TranslatedText></Description><def:Origin Type="Derived" Source="Sponsor"/>
    </ItemDef>
    <ItemDef OID="IT.ADCM.GCSFFL" Name="GCSFFL" DataType="text" Length="1">
      <Description><TranslatedText xml:lang="en">G-CSF Concomitant Med Flag</TranslatedText></Description><CodeListRef CodeListOID="CL.NY"/>
      <def:Origin Type="Collected" Source="Sponsor"/>
    </ItemDef>
    <ItemDef OID="IT.ADCM.GCSFPRFL" Name="GCSFPRFL" DataType="text" Length="1">
      <Description><TranslatedText xml:lang="en">G-CSF Prophylactic Med Flag</TranslatedText></Description><CodeListRef CodeListOID="CL.NY"/>
      <def:Origin Type="Collected" Source="Sponsor"/>
    </ItemDef>
    <ItemDef OID="IT.ADCM.NACTFL" Name="NACTFL" DataType="text" Length="1">
      <Description><TranslatedText xml:lang="en">New Anti-Cancer Therapy Flag</TranslatedText></Description><CodeListRef CodeListOID="CL.NY"/>
      <def:Origin Type="Collected" Source="Sponsor"/>
    </ItemDef>
    <ItemDef OID="IT.ADCM.NACTDT" Name="NACTDT" DataType="date" Length="10" def:CommentOID="COM.NACTDT">
      <Description><TranslatedText xml:lang="en">First Date of New Anti-Cancer Therapy</TranslatedText></Description><def:Origin Type="Collected" Source="Sponsor"/>
    </ItemDef>
    <ItemDef OID="IT.ADCM.PREDNFL" Name="PREDNFL" DataType="text" Length="1">
      <Description><TranslatedText xml:lang="en">Prednisone Co-Medication Flag</TranslatedText></Description><CodeListRef CodeListOID="CL.NY"/>
      <def:Origin Type="Collected" Source="Sponsor"/>
    </ItemDef>
    <ItemDef OID="IT.ADCM.TRTEMFL" Name="TRTEMFL" DataType="text" Length="1">
      <Description><TranslatedText xml:lang="en">Treatment Emergent Med Flag</TranslatedText></Description><CodeListRef CodeListOID="CL.NY"/>
      <def:Origin Type="Assigned" Source="Sponsor"/>
    </ItemDef>
    <ItemDef OID="IT.ADAE.TRTA" Name="TRTA" DataType="text" Length="20">
      <Description><TranslatedText xml:lang="en">Actual Treatment</TranslatedText></Description><CodeListRef CodeListOID="CL.TRT"/>
      <def:Origin Type="Assigned" Source="Sponsor"/>
    </ItemDef>
    <ItemDef OID="IT.ADAE.TRTAN" Name="TRTAN" DataType="float" Length="8">
      <Description><TranslatedText xml:lang="en">Actual Treatment (N)</TranslatedText></Description><CodeListRef CodeListOID="CL.TRT01PN"/>
      <def:Origin Type="Assigned" Source="Sponsor"/>
    </ItemDef>
    <ItemDef OID="IT.ADAE.STUDYID" Name="STUDYID" DataType="text" Length="40">
      <Description><TranslatedText xml:lang="en">Study Identifier</TranslatedText></Description><def:Origin Type="Protocol" Source="Sponsor"/>
    </ItemDef>
    <ItemDef OID="IT.ADAE.USUBJID" Name="USUBJID" DataType="text" Length="40">
      <Description><TranslatedText xml:lang="en">Unique Subject Identifier</TranslatedText></Description><def:Origin Type="Collected" Source="Sponsor"/>
    </ItemDef>
    <ItemDef OID="IT.ADAE.AEDECOD" Name="AEDECOD" DataType="text" Length="100">
      <Description><TranslatedText xml:lang="en">Dictionary-Derived Term</TranslatedText></Description><def:Origin Type="Collected" Source="Sponsor"/>
    </ItemDef>
    <ItemDef OID="IT.ADAE.AEBODSYS" Name="AEBODSYS" DataType="text" Length="100">
      <Description><TranslatedText xml:lang="en">Body System or Organ Class</TranslatedText></Description><def:Origin Type="Collected" Source="Sponsor"/>
    </ItemDef>
    <ItemDef OID="IT.ADAE.AEHLT" Name="AEHLT" DataType="text" Length="100">
      <Description><TranslatedText xml:lang="en">High Level Term</TranslatedText></Description><def:Origin Type="Collected" Source="Sponsor"/>
    </ItemDef>
    <ItemDef OID="IT.ADAE.AESEV" Name="AESEV" DataType="text" Length="10">
      <Description><TranslatedText xml:lang="en">Severity/Intensity</TranslatedText></Description><def:Origin Type="Collected" Source="Sponsor"/>
    </ItemDef>
    <ItemDef OID="IT.ADAE.ATOXGR" Name="ATOXGR" DataType="float" Length="8">
      <Description><TranslatedText xml:lang="en">Analysis Toxicity Grade</TranslatedText></Description><def:Origin Type="Derived" Source="Sponsor"/>
    </ItemDef>
    <ItemDef OID="IT.ADAE.AESSER" Name="AESER" DataType="text" Length="1">
      <Description><TranslatedText xml:lang="en">Serious Event</TranslatedText></Description><CodeListRef CodeListOID="CL.NY"/>
      <def:Origin Type="Collected" Source="Sponsor"/>
    </ItemDef>
    <ItemDef OID="IT.ADAE.AEREL" Name="AEREL" DataType="text" Length="40">
      <Description><TranslatedText xml:lang="en">Causality</TranslatedText></Description><def:Origin Type="Collected" Source="Sponsor"/>
    </ItemDef>
    <ItemDef OID="IT.ADAE.ASTDT" Name="ASTDT" DataType="date" Length="10">
      <Description><TranslatedText xml:lang="en">Analysis Start Date</TranslatedText></Description><def:Origin Type="Collected" Source="Sponsor"/>
    </ItemDef>
    <ItemDef OID="IT.ADAE.AENDT" Name="AENDT" DataType="date" Length="10">
      <Description><TranslatedText xml:lang="en">Analysis End Date</TranslatedText></Description><def:Origin Type="Collected" Source="Sponsor"/>
    </ItemDef>
    <ItemDef OID="IT.ADAE.ASTDY" Name="ASTDY" DataType="float" Length="8">
      <Description><TranslatedText xml:lang="en">Analysis Start Day</TranslatedText></Description><def:Origin Type="Collected" Source="Sponsor"/>
    </ItemDef>
    <ItemDef OID="IT.ADAE.AENDY" Name="AENDY" DataType="float" Length="8">
      <Description><TranslatedText xml:lang="en">Analysis End Day</TranslatedText></Description><def:Origin Type="Collected" Source="Sponsor"/>
    </ItemDef>
    <ItemDef OID="IT.ADAE.AEACN" Name="AEACN" DataType="text" Length="100">
      <Description><TranslatedText xml:lang="en">Action Taken with Study Treatment</TranslatedText></Description><def:Origin Type="Collected" Source="Sponsor"/>
    </ItemDef>
    <ItemDef OID="IT.ADAE.AEOUT" Name="AEOUT" DataType="text" Length="100">
      <Description><TranslatedText xml:lang="en">Outcome of Adverse Event</TranslatedText></Description><def:Origin Type="Collected" Source="Sponsor"/>
    </ItemDef>
    <ItemDef OID="IT.ADAE.CQ02NAM" Name="CQ02NAM" DataType="text" Length="100">
      <Description><TranslatedText xml:lang="en">Customized Query 02 Name</TranslatedText></Description><def:Origin Type="Collected" Source="Sponsor"/>
    </ItemDef>
    <ItemDef OID="IT.ADAE.CQ02CD" Name="CQ02CD" DataType="text" Length="8">
      <Description><TranslatedText xml:lang="en">Customized Query 02 Code</TranslatedText></Description><def:Origin Type="Collected" Source="Sponsor"/>
    </ItemDef>
    <ItemDef OID="IT.ADAE.CQ02SC" Name="CQ02SC" DataType="text" Length="10">
      <Description><TranslatedText xml:lang="en">Customized Query 02 Source</TranslatedText></Description><def:Origin Type="Collected" Source="Sponsor"/>
    </ItemDef>
    <ItemDef OID="IT.ADAE.CIAESEQ" Name="CIAESEQ" DataType="float" Length="8" def:CommentOID="COM.CIAESEQ">
      <Description><TranslatedText xml:lang="en">Custom Episode Sequence Number</TranslatedText></Description><def:Origin Type="Collected" Source="Sponsor"/>
    </ItemDef>
    <ItemDef OID="IT.ADAE.CIAESDT" Name="CIAESDT" DataType="date" Length="10">
      <Description><TranslatedText xml:lang="en">Custom Episode Start Date</TranslatedText></Description><def:Origin Type="Collected" Source="Sponsor"/>
    </ItemDef>
    <ItemDef OID="IT.ADAE.CIAEEDT" Name="CIAEEDT" DataType="date" Length="10">
      <Description><TranslatedText xml:lang="en">Custom Episode End Date</TranslatedText></Description><def:Origin Type="Collected" Source="Sponsor"/>
    </ItemDef>
    <ItemDef OID="IT.ADAE.CIAEDUR" Name="CIAEDUR" DataType="float" Length="8">
      <Description><TranslatedText xml:lang="en">Custom Episode Duration (Months)</TranslatedText></Description><def:Origin Type="Collected" Source="Sponsor"/>
    </ItemDef>
    <ItemDef OID="IT.ADAE.AEOCCFL" Name="AEOCCFL" DataType="text" Length="1">
      <Description><TranslatedText xml:lang="en">Adverse Event Occurrence Flag</TranslatedText></Description><CodeListRef CodeListOID="CL.NY"/>
      <def:Origin Type="Collected" Source="Sponsor"/>
    </ItemDef>
    <ItemDef OID="IT.ADAE.TRTEMFL" Name="TRTEMFL" DataType="text" Length="1">
      <Description><TranslatedText xml:lang="en">Treatment Emergent AE Flag</TranslatedText></Description><CodeListRef CodeListOID="CL.NY"/>
      <def:Origin Type="Assigned" Source="Sponsor"/>
    </ItemDef>
    <ItemDef OID="IT.ADAE.ADURN" Name="ADURN" DataType="float" Length="8">
      <Description><TranslatedText xml:lang="en">AE Duration (Numeric)</TranslatedText></Description><def:Origin Type="Collected" Source="Sponsor"/>
    </ItemDef>
    <ItemDef OID="IT.ADAE.ADURU" Name="ADURU" DataType="text" Length="20">
      <Description><TranslatedText xml:lang="en">AE Duration Units</TranslatedText></Description><def:Origin Type="Collected" Source="Sponsor"/>
    </ItemDef>
    <ItemDef OID="IT.ADAE.AESEQ" Name="AESEQ" DataType="integer" Length="8">
      <Description><TranslatedText xml:lang="en">Adverse Event Sequence Number</TranslatedText></Description><def:Origin Type="Collected" Source="Sponsor"/>
    </ItemDef>
    <ItemDef OID="IT.ADLB.STUDYID" Name="STUDYID" DataType="text" Length="40">
      <Description><TranslatedText xml:lang="en">Study Identifier</TranslatedText></Description><def:Origin Type="Protocol" Source="Sponsor"/>
    </ItemDef>
    <ItemDef OID="IT.ADLB.USUBJID" Name="USUBJID" DataType="text" Length="40">
      <Description><TranslatedText xml:lang="en">Unique Subject Identifier</TranslatedText></Description><def:Origin Type="Collected" Source="Sponsor"/>
    </ItemDef>
    <ItemDef OID="IT.ADLB.SUBJID" Name="SUBJID" DataType="text" Length="20">
      <Description><TranslatedText xml:lang="en">Subject Identifier for the Study</TranslatedText></Description><def:Origin Type="Collected" Source="Sponsor"/>
    </ItemDef>
    <ItemDef OID="IT.ADLB.TRT01P" Name="TRT01P" DataType="text" Length="40">
      <Description><TranslatedText xml:lang="en">Planned Treatment for Period 01</TranslatedText></Description><CodeListRef CodeListOID="CL.TRT"/>
      <def:Origin Type="Assigned" Source="Sponsor"/>
    </ItemDef>
    <ItemDef OID="IT.ADLB.TRTSDT" Name="TRTSDT" DataType="date" Length="10">
      <Description><TranslatedText xml:lang="en">Date of First Exposure to Treatment</TranslatedText></Description><def:Origin Type="Collected" Source="Sponsor"/>
    </ItemDef>
    <ItemDef OID="IT.ADLB.PARAMCD" Name="PARAMCD" DataType="text" Length="20">
      <Description><TranslatedText xml:lang="en">Parameter Code</TranslatedText></Description><CodeListRef CodeListOID="CL.PARAMCD"/>
      <def:Origin Type="Collected" Source="Sponsor"/>
    </ItemDef>
    <ItemDef OID="IT.ADLB.PARAM" Name="PARAM" DataType="text" Length="200">
      <Description><TranslatedText xml:lang="en">Parameter</TranslatedText></Description><def:Origin Type="Collected" Source="Sponsor"/>
    </ItemDef>
    <ItemDef OID="IT.ADLB.PARAMN" Name="PARAMN" DataType="float" Length="8">
      <Description><TranslatedText xml:lang="en">Parameter (N)</TranslatedText></Description><def:Origin Type="Collected" Source="Sponsor"/>
    </ItemDef>
    <ItemDef OID="IT.ADLB.PARCAT1" Name="PARCAT1" DataType="text" Length="20">
      <Description><TranslatedText xml:lang="en">Parameter Category 1</TranslatedText></Description><def:Origin Type="Collected" Source="Sponsor"/>
    </ItemDef>
    <ItemDef OID="IT.ADLB.ADT" Name="ADT" DataType="date" Length="10">
      <Description><TranslatedText xml:lang="en">Analysis Date</TranslatedText></Description><def:Origin Type="Derived" Source="Sponsor"/>
    </ItemDef>
    <ItemDef OID="IT.ADLB.AVAL" Name="AVAL" DataType="float" Length="8">
      <Description><TranslatedText xml:lang="en">Analysis Value</TranslatedText></Description><def:ValueListRef ValueListOID="VL.ADLB.AVAL"/>
      <def:Origin Type="Derived" Source="Sponsor"/>
    </ItemDef>
    <ItemDef OID="IT.ADLB.AVALC" Name="AVALC" DataType="text" Length="100">
      <Description><TranslatedText xml:lang="en">Analysis Value (C)</TranslatedText></Description><def:Origin Type="Derived" Source="Sponsor"/>
    </ItemDef>
    <ItemDef OID="IT.ADLB.LBNRLO" Name="LBNRLO" DataType="text" Length="100">
      <Description><TranslatedText xml:lang="en">Reference Range Lower Limit in Orig Unit</TranslatedText></Description><def:Origin Type="Collected" Source="Sponsor"/>
    </ItemDef>
    <ItemDef OID="IT.ADLB.LBNRHI" Name="LBNRHI" DataType="text" Length="100">
      <Description><TranslatedText xml:lang="en">Reference Range Upper Limit in Orig Unit</TranslatedText></Description><def:Origin Type="Collected" Source="Sponsor"/>
    </ItemDef>
    <ItemDef OID="IT.ADLB.LBNRIND" Name="LBNRIND" DataType="text" Length="20">
      <Description><TranslatedText xml:lang="en">Reference Range Indicator</TranslatedText></Description><def:Origin Type="Collected" Source="Sponsor"/>
    </ItemDef>
    <ItemDef OID="IT.ADLB.AVISIT" Name="AVISIT" DataType="text" Length="40">
      <Description><TranslatedText xml:lang="en">Analysis Visit</TranslatedText></Description><def:Origin Type="Collected" Source="Sponsor"/>
    </ItemDef>
    <ItemDef OID="IT.ADLB.AVISITN" Name="AVISITN" DataType="float" Length="8">
      <Description><TranslatedText xml:lang="en">Analysis Visit (N)</TranslatedText></Description><def:Origin Type="Collected" Source="Sponsor"/>
    </ItemDef>
    <ItemDef OID="IT.ADLB.AWDIST" Name="AWDIST" DataType="float" Length="8">
      <Description><TranslatedText xml:lang="en">Analysis Window Distance</TranslatedText></Description><def:Origin Type="Collected" Source="Sponsor"/>
    </ItemDef>
    <ItemDef OID="IT.ADLB.ATOXGR" Name="ATOXGR" DataType="float" Length="8">
      <Description><TranslatedText xml:lang="en">Analysis Toxicity Grade</TranslatedText></Description><def:Origin Type="Derived" Source="Sponsor"/>
    </ItemDef>
    <ItemDef OID="IT.ADLB.BASE" Name="BASE" DataType="float" Length="8">
      <Description><TranslatedText xml:lang="en">Baseline Value</TranslatedText></Description><def:Origin Type="Derived" Source="Sponsor"/>
    </ItemDef>
    <ItemDef OID="IT.ADLB.BASEC" Name="BASEC" DataType="text" Length="100">
      <Description><TranslatedText xml:lang="en">Result or Finding in Original Units</TranslatedText></Description><def:Origin Type="Derived" Source="Sponsor"/>
    </ItemDef>
    <ItemDef OID="IT.ADLB.BTOXGR" Name="BTOXGR" DataType="float" Length="8">
      <Description><TranslatedText xml:lang="en">Baseline Toxicity Grade</TranslatedText></Description><def:Origin Type="Collected" Source="Sponsor"/>
    </ItemDef>
    <ItemDef OID="IT.ADLB.CHG" Name="CHG" DataType="float" Length="8">
      <Description><TranslatedText xml:lang="en">Change from Baseline</TranslatedText></Description><def:Origin Type="Derived" Source="Sponsor"/>
    </ItemDef>
    <ItemDef OID="IT.ADLB.PCHG" Name="PCHG" DataType="float" Length="8">
      <Description><TranslatedText xml:lang="en">Percent Change from Baseline</TranslatedText></Description><def:Origin Type="Derived" Source="Sponsor"/>
    </ItemDef>
    <ItemDef OID="IT.ADLB.ANL01FL" Name="ANL01FL" DataType="text" Length="1">
      <Description><TranslatedText xml:lang="en">Analysis Record Flag 01</TranslatedText></Description><CodeListRef CodeListOID="CL.NY"/>
      <def:Origin Type="Collected" Source="Sponsor"/>
    </ItemDef>
    <ItemDef OID="IT.ADLB.BASEFL" Name="BASEFL" DataType="text" Length="1">
      <Description><TranslatedText xml:lang="en">Baseline Record Flag</TranslatedText></Description><CodeListRef CodeListOID="CL.NY"/>
      <def:Origin Type="Derived" Source="Sponsor"/>
    </ItemDef>
    <ItemDef OID="IT.ADLB.LBDY" Name="LBDY" DataType="float" Length="8">
      <Description><TranslatedText xml:lang="en">Analysis Day</TranslatedText></Description><def:Origin Type="Collected" Source="Sponsor"/>
    </ItemDef>
    <ItemDef OID="IT.ADRS.STUDYID" Name="STUDYID" DataType="text" Length="40">
      <Description><TranslatedText xml:lang="en">Study Identifier</TranslatedText></Description><def:Origin Type="Protocol" Source="Sponsor"/>
    </ItemDef>
    <ItemDef OID="IT.ADRS.USUBJID" Name="USUBJID" DataType="text" Length="40">
      <Description><TranslatedText xml:lang="en">Unique Subject Identifier</TranslatedText></Description><def:Origin Type="Collected" Source="Sponsor"/>
    </ItemDef>
    <ItemDef OID="IT.ADRS.SUBJID" Name="SUBJID" DataType="text" Length="20">
      <Description><TranslatedText xml:lang="en">Subject Identifier for the Study</TranslatedText></Description><def:Origin Type="Collected" Source="Sponsor"/>
    </ItemDef>
    <ItemDef OID="IT.ADRS.TRT01P" Name="TRT01P" DataType="text" Length="40">
      <Description><TranslatedText xml:lang="en">Planned Treatment for Period 01</TranslatedText></Description><CodeListRef CodeListOID="CL.TRT"/>
      <def:Origin Type="Assigned" Source="Sponsor"/>
    </ItemDef>
    <ItemDef OID="IT.ADRS.TRTSDT" Name="TRTSDT" DataType="date" Length="10">
      <Description><TranslatedText xml:lang="en">Date of First Exposure to Treatment</TranslatedText></Description><def:Origin Type="Collected" Source="Sponsor"/>
    </ItemDef>
    <ItemDef OID="IT.ADRS.PARAMCD" Name="PARAMCD" DataType="text" Length="20">
      <Description><TranslatedText xml:lang="en">Parameter Code</TranslatedText></Description><CodeListRef CodeListOID="CL.PARAMCD"/>
      <def:Origin Type="Collected" Source="Sponsor"/>
    </ItemDef>
    <ItemDef OID="IT.ADRS.PARAM" Name="PARAM" DataType="text" Length="200">
      <Description><TranslatedText xml:lang="en">Parameter</TranslatedText></Description><def:Origin Type="Collected" Source="Sponsor"/>
    </ItemDef>
    <ItemDef OID="IT.ADRS.AVALC" Name="AVALC" DataType="text" Length="100">
      <Description><TranslatedText xml:lang="en">Analysis Value (C)</TranslatedText></Description><def:Origin Type="Derived" Source="Sponsor"/>
    </ItemDef>
    <ItemDef OID="IT.ADRS.ADT" Name="ADT" DataType="date" Length="10">
      <Description><TranslatedText xml:lang="en">Analysis Date</TranslatedText></Description><def:Origin Type="Collected" Source="Sponsor"/>
    </ItemDef>
    <ItemDef OID="IT.ADRS.ADY" Name="ADY" DataType="float" Length="8">
      <Description><TranslatedText xml:lang="en">Analysis Day</TranslatedText></Description><def:Origin Type="Collected" Source="Sponsor"/>
    </ItemDef>
    <ItemDef OID="IT.ADRS.VISIT" Name="AVISIT" DataType="text" Length="40">
      <Description><TranslatedText xml:lang="en">Analysis Visit</TranslatedText></Description><def:Origin Type="Collected" Source="Sponsor"/>
    </ItemDef>
    <ItemDef OID="IT.ADRS.ANL01FL" Name="ANL01FL" DataType="text" Length="1">
      <Description><TranslatedText xml:lang="en">Analysis Record Flag 01</TranslatedText></Description><CodeListRef CodeListOID="CL.NY"/>
      <def:Origin Type="Collected" Source="Sponsor"/>
    </ItemDef>
    <ItemDef OID="IT.ADRS.AVAL" Name="AVAL" DataType="float" Length="8">
      <Description><TranslatedText xml:lang="en">Analysis Value</TranslatedText></Description><def:Origin Type="Derived" Source="Sponsor"/>
    </ItemDef>
    <ItemDef OID="IT.ADTTE.STUDYID" Name="STUDYID" DataType="text" Length="40">
      <Description><TranslatedText xml:lang="en">Study Identifier</TranslatedText></Description><def:Origin Type="Protocol" Source="Sponsor"/>
    </ItemDef>
    <ItemDef OID="IT.ADTTE.USUBJID" Name="USUBJID" DataType="text" Length="40">
      <Description><TranslatedText xml:lang="en">Unique Subject Identifier</TranslatedText></Description><def:Origin Type="Collected" Source="Sponsor"/>
    </ItemDef>
    <ItemDef OID="IT.ADTTE.SUBJID" Name="SUBJID" DataType="text" Length="20">
      <Description><TranslatedText xml:lang="en">Subject Identifier for the Study</TranslatedText></Description><def:Origin Type="Collected" Source="Sponsor"/>
    </ItemDef>
    <ItemDef OID="IT.ADTTE.SITEID" Name="SITEID" DataType="text" Length="10">
      <Description><TranslatedText xml:lang="en">Study Site Identifier</TranslatedText></Description><def:Origin Type="Collected" Source="Sponsor"/>
    </ItemDef>
    <ItemDef OID="IT.ADTTE.TRT01P" Name="TRT01P" DataType="text" Length="40">
      <Description><TranslatedText xml:lang="en">Planned Treatment for Period 01</TranslatedText></Description><CodeListRef CodeListOID="CL.TRT"/>
      <def:Origin Type="Assigned" Source="Sponsor"/>
    </ItemDef>
    <ItemDef OID="IT.ADTTE.TRT01PN" Name="TRT01PN" DataType="float" Length="8">
      <Description><TranslatedText xml:lang="en">Planned Treatment for Period 01 (N)</TranslatedText></Description><CodeListRef CodeListOID="CL.TRT01PN"/>
      <def:Origin Type="Assigned" Source="Sponsor"/>
    </ItemDef>
    <ItemDef OID="IT.ADTTE.PARAMCD" Name="PARAMCD" DataType="text" Length="20">
      <Description><TranslatedText xml:lang="en">Parameter Code</TranslatedText></Description><CodeListRef CodeListOID="CL.PARAMCD"/>
      <def:Origin Type="Collected" Source="Sponsor"/>
    </ItemDef>
    <ItemDef OID="IT.ADTTE.PARAM" Name="PARAM" DataType="text" Length="200">
      <Description><TranslatedText xml:lang="en">Parameter</TranslatedText></Description><def:Origin Type="Collected" Source="Sponsor"/>
    </ItemDef>
    <ItemDef OID="IT.ADTTE.STARTDT" Name="STARTDT" DataType="date" Length="10">
      <Description><TranslatedText xml:lang="en">Time-to-Event Start Date</TranslatedText></Description><def:Origin Type="Collected" Source="Sponsor"/>
    </ItemDef>
    <ItemDef OID="IT.ADTTE.ADT" Name="ADT" DataType="date" Length="10">
      <Description><TranslatedText xml:lang="en">Analysis Date</TranslatedText></Description><def:Origin Type="Collected" Source="Sponsor"/>
    </ItemDef>
    <ItemDef OID="IT.ADTTE.CNSR" Name="CNSR" DataType="float" Length="8">
      <Description><TranslatedText xml:lang="en">Censor Flag</TranslatedText></Description><CodeListRef CodeListOID="CL.CNSR"/>
      <def:Origin Type="Derived" Source="Sponsor"/>
    </ItemDef>
    <ItemDef OID="IT.ADTTE.EVNTDESC" Name="EVNTDESC" DataType="text" Length="100">
      <Description><TranslatedText xml:lang="en">Event Description</TranslatedText></Description><def:Origin Type="Collected" Source="Sponsor"/>
    </ItemDef>
    <ItemDef OID="IT.ADTTE.CNSDTDSC" Name="CNSDTDSC" DataType="text" Length="100">
      <Description><TranslatedText xml:lang="en">Censoring Description</TranslatedText></Description><def:Origin Type="Collected" Source="Sponsor"/>
    </ItemDef>
    <ItemDef OID="IT.ADTTE.AVAL" Name="AVAL" DataType="float" Length="8">
      <Description><TranslatedText xml:lang="en">Analysis Value (Days)</TranslatedText></Description><def:ValueListRef ValueListOID="VL.ADTTE.AVAL"/>
      <def:Origin Type="Derived" Source="Sponsor"/>
    </ItemDef>
    <ItemDef OID="IT.ADTTE.ITTFL" Name="ITTFL" DataType="text" Length="1">
      <Description><TranslatedText xml:lang="en">Intent-To-Treat Population Flag</TranslatedText></Description><CodeListRef CodeListOID="CL.NY"/>
      <def:Origin Type="Derived" Source="Sponsor"/>
    </ItemDef>
    <ItemDef OID="IT.ADTTE.SAFFL" Name="SAFFL" DataType="text" Length="1">
      <Description><TranslatedText xml:lang="en">Safety Population Flag</TranslatedText></Description><CodeListRef CodeListOID="CL.NY"/>
      <def:Origin Type="Derived" Source="Sponsor"/>
    </ItemDef>
    <ItemDef OID="IT.ADTTE.PARAMN" Name="PARAMN" DataType="float" Length="8">
      <Description><TranslatedText xml:lang="en">Parameter (N)</TranslatedText></Description><def:Origin Type="Derived" Source="Sponsor"/>
    </ItemDef>
    <ItemDef OID="IT.ADTTE.PARCAT1" Name="PARCAT1" DataType="text" Length="20">
      <Description><TranslatedText xml:lang="en">Parameter Category 1</TranslatedText></Description><def:Origin Type="Derived" Source="Sponsor"/>
    </ItemDef>
    <ItemDef OID="IT.ADTTE.AVALU" Name="AVALU" DataType="text" Length="8">
      <Description><TranslatedText xml:lang="en">Analysis Value Unit</TranslatedText></Description><def:Origin Type="Derived" Source="Sponsor"/>
    </ItemDef>
    <ItemDef OID="IT.ADLB.AVAL.NEUT" Name="AVAL" DataType="float" Length="8">
      <Description><TranslatedText xml:lang="en">Absolute Neutrophil Count (x10^3/uL)</TranslatedText></Description><def:Origin Type="Derived" Source="Sponsor"/>
    </ItemDef>
    <ItemDef OID="IT.ADLB.AVAL.ANCNADIR" Name="AVAL" DataType="float" Length="8" def:CommentOID="COM.ANCNADIR">
      <Description><TranslatedText xml:lang="en">Minimum Cycle 1 ANC Nadir (x10^3/uL)</TranslatedText></Description><def:Origin Type="Derived" Source="Sponsor"/>
    </ItemDef>
    <ItemDef OID="IT.ADLB.AVAL.PSA" Name="AVAL" DataType="float" Length="8">
      <Description><TranslatedText xml:lang="en">Prostate Specific Antigen (ug/L)</TranslatedText></Description><def:Origin Type="Derived" Source="Sponsor"/>
    </ItemDef>
    <ItemDef OID="IT.ADEX.AVAL.RDI" Name="AVAL" DataType="float" Length="8">
      <Description><TranslatedText xml:lang="en">Relative Dose Intensity (%)</TranslatedText></Description><def:Origin Type="Derived" Source="Sponsor"/>
    </ItemDef>
    <ItemDef OID="IT.ADEX.AVAL.NCYCLE" Name="AVAL" DataType="integer" Length="8">
      <Description><TranslatedText xml:lang="en">Number of Cycles Received</TranslatedText></Description><def:Origin Type="Derived" Source="Sponsor"/>
    </ItemDef>
    <ItemDef OID="IT.ADTTE.AVAL.OS" Name="AVAL" DataType="float" Length="8">
      <Description><TranslatedText xml:lang="en">Overall Survival (Days)</TranslatedText></Description><def:Origin Type="Derived" Source="Sponsor"/>
    </ItemDef>
    <ItemDef OID="IT.ADTTE.AVAL.PFS" Name="AVAL" DataType="float" Length="8">
      <Description><TranslatedText xml:lang="en">Progression-Free Survival (Days)</TranslatedText></Description><def:Origin Type="Derived" Source="Sponsor"/>
    </ItemDef>
  <CodeList OID="CL.NY" Name="Yes/No Codelist" DataType="text" def:StandardOID="STD.ADaMCT.2026-03-27">
      <CodeListItem CodedValue="Y">
        <Decode>
          <TranslatedText xml:lang="en">Yes</TranslatedText>
        </Decode>
        <Alias Context="nci:ExtCodeID" Name="C49488"/>
      </CodeListItem>
      <CodeListItem CodedValue="N">
        <Decode>
          <TranslatedText xml:lang="en">No</TranslatedText>
        </Decode>
        <Alias Context="nci:ExtCodeID" Name="C49487"/>
      </CodeListItem>
      <Alias Context="nci:ExtCodeID" Name="C66742"/>
    </CodeList>
    <CodeList OID="CL.SEX" Name="Sex Codelist" DataType="text" def:StandardOID="STD.ADaMCT.2026-03-27">
      <CodeListItem CodedValue="M">
        <Decode>
          <TranslatedText xml:lang="en">Male</TranslatedText>
        </Decode>
        <Alias Context="nci:ExtCodeID" Name="C20197"/>
      </CodeListItem>
      <CodeListItem CodedValue="F">
        <Decode>
          <TranslatedText xml:lang="en">Female</TranslatedText>
        </Decode>
        <Alias Context="nci:ExtCodeID" Name="C16576"/>
      </CodeListItem>
      <Alias Context="nci:ExtCodeID" Name="C66731"/>
    </CodeList>
    <CodeList OID="CL.TRT" Name="Treatment Codelist" DataType="text">
      <CodeListItem CodedValue="CbzP">
        <Decode>
          <TranslatedText xml:lang="en">Cabazitaxel + Prednisone</TranslatedText>
        </Decode>
      </CodeListItem>
      <CodeListItem CodedValue="MP">
        <Decode>
          <TranslatedText xml:lang="en">Mitoxantrone + Prednisone</TranslatedText>
        </Decode>
      </CodeListItem>
    </CodeList>
    <CodeList OID="CL.TRT01PN" Name="Treatment Numeric Codelist" DataType="integer">
      <CodeListItem CodedValue="1">
        <Decode>
          <TranslatedText xml:lang="en">Cabazitaxel + Prednisone</TranslatedText>
        </Decode>
      </CodeListItem>
      <CodeListItem CodedValue="2">
        <Decode>
          <TranslatedText xml:lang="en">Mitoxantrone + Prednisone</TranslatedText>
        </Decode>
      </CodeListItem>
    </CodeList>
    <CodeList OID="CL.AGEGR" Name="Age Group Codelist" DataType="text">
      <CodeListItem CodedValue="&lt;65">
        <Decode>
          <TranslatedText xml:lang="en">&lt;65 Years</TranslatedText>
        </Decode>
      </CodeListItem>
      <CodeListItem CodedValue="&gt;=65">
        <Decode>
          <TranslatedText xml:lang="en">&gt;=65 Years</TranslatedText>
        </Decode>
      </CodeListItem>
    </CodeList>
    <CodeList OID="CL.CNSR" Name="Censoring Codelist" DataType="integer">
      <CodeListItem CodedValue="0">
        <Decode>
          <TranslatedText xml:lang="en">Event</TranslatedText>
        </Decode>
      </CodeListItem>
      <CodeListItem CodedValue="1">
        <Decode>
          <TranslatedText xml:lang="en">Censored</TranslatedText>
        </Decode>
      </CodeListItem>
    </CodeList>
    <CodeList OID="CL.PARAMCD" Name="Parameter Code Codelist" DataType="text">
      <CodeListItem CodedValue="NREDDOSE">
        <Decode>
          <TranslatedText xml:lang="en">Number of Dose Reductions</TranslatedText>
        </Decode>
      </CodeListItem>
      <CodeListItem CodedValue="RDI">
        <Decode>
          <TranslatedText xml:lang="en">Relative Dose Intensity (%)</TranslatedText>
        </Decode>
      </CodeListItem>
      <CodeListItem CodedValue="RDIDL">
        <Decode>
          <TranslatedText xml:lang="en">Relative Dose Intensity Category</TranslatedText>
        </Decode>
      </CodeListItem>
      <CodeListItem CodedValue="PERFDOSE">
        <Decode>
          <TranslatedText xml:lang="en">Actual Dose Administered (mg/m2)</TranslatedText>
        </Decode>
      </CodeListItem>
      <CodeListItem CodedValue="ADJ">
        <Decode>
          <TranslatedText xml:lang="en">Dose Adjusted Flag</TranslatedText>
        </Decode>
      </CodeListItem>
      <CodeListItem CodedValue="ADJAE">
        <Decode>
          <TranslatedText xml:lang="en">Dose Adjusted due to AE Flag</TranslatedText>
        </Decode>
      </CodeListItem>
      <CodeListItem CodedValue="ANCNADIR">
        <Decode>
          <TranslatedText xml:lang="en">Minimum post-baseline ANC value per cycle</TranslatedText>
        </Decode>
      </CodeListItem>
      <CodeListItem CodedValue="ANCRECDY">
        <Decode>
          <TranslatedText xml:lang="en">Days from nadir to first ANC recovery</TranslatedText>
        </Decode>
      </CodeListItem>
      <CodeListItem CodedValue="OS">
        <Decode>
          <TranslatedText xml:lang="en">Overall Survival</TranslatedText>
        </Decode>
      </CodeListItem>
      <CodeListItem CodedValue="PFS">
        <Decode>
          <TranslatedText xml:lang="en">Progression-Free Survival</TranslatedText>
        </Decode>
      </CodeListItem>
      <CodeListItem CodedValue="TTPSA">
        <Decode>
          <TranslatedText xml:lang="en">Time to PSA Progression</TranslatedText>
        </Decode>
      </CodeListItem>
      <CodeListItem CodedValue="TTUMOR">
        <Decode>
          <TranslatedText xml:lang="en">Time to Tumor Progression</TranslatedText>
        </Decode>
      </CodeListItem>
      <CodeListItem CodedValue="TTPAIN">
        <Decode>
          <TranslatedText xml:lang="en">Time to Pain Progression</TranslatedText>
        </Decode>
      </CodeListItem>
      <CodeListItem CodedValue="TTSAE">
        <Decode>
          <TranslatedText xml:lang="en">Time to First Serious Adverse Event</TranslatedText>
        </Decode>
      </CodeListItem>
          <CodeListItem CodedValue="ALP">
        <Decode>
          <TranslatedText xml:lang="en">ALKALINE PHOSPHATASE</TranslatedText>
        </Decode>
      </CodeListItem>
      <CodeListItem CodedValue="ALT">
        <Decode>
          <TranslatedText xml:lang="en">ALANINE AMINOTRANSFERASE</TranslatedText>
        </Decode>
      </CodeListItem>
      <CodeListItem CodedValue="AST">
        <Decode>
          <TranslatedText xml:lang="en">ASPARTATE AMINOTRANSFERASE</TranslatedText>
        </Decode>
      </CodeListItem>
      <CodeListItem CodedValue="BASO">
        <Decode>
          <TranslatedText xml:lang="en">BASOPHILS</TranslatedText>
        </Decode>
      </CodeListItem>
      <CodeListItem CodedValue="BESTRESP">
        <Decode>
          <TranslatedText xml:lang="en">Best Overall Response (BOR)</TranslatedText>
        </Decode>
      </CodeListItem>
      <CodeListItem CodedValue="BICARB">
        <Decode>
          <TranslatedText xml:lang="en">BICARBONATE</TranslatedText>
        </Decode>
      </CodeListItem>
      <CodeListItem CodedValue="BILI">
        <Decode>
          <TranslatedText xml:lang="en">BILIRUBIN</TranslatedText>
        </Decode>
      </CodeListItem>
      <CodeListItem CodedValue="BUN">
        <Decode>
          <TranslatedText xml:lang="en">BLOOD UREA NITROGEN</TranslatedText>
        </Decode>
      </CodeListItem>
      <CodeListItem CodedValue="CL">
        <Decode>
          <TranslatedText xml:lang="en">CHLORIDE</TranslatedText>
        </Decode>
      </CodeListItem>
      <CodeListItem CodedValue="CREAT">
        <Decode>
          <TranslatedText xml:lang="en">CREATININE</TranslatedText>
        </Decode>
      </CodeListItem>
      <CodeListItem CodedValue="CUMDOSE">
        <Decode>
          <TranslatedText xml:lang="en">Cumulative Actual Dose (mg/m2)</TranslatedText>
        </Decode>
      </CodeListItem>
      <CodeListItem CodedValue="EOS">
        <Decode>
          <TranslatedText xml:lang="en">EOSINOPHILS</TranslatedText>
        </Decode>
      </CodeListItem>
      <CodeListItem CodedValue="GLUC">
        <Decode>
          <TranslatedText xml:lang="en">GLUCOSE</TranslatedText>
        </Decode>
      </CodeListItem>
      <CodeListItem CodedValue="HGB">
        <Decode>
          <TranslatedText xml:lang="en">HEMOGLOBIN</TranslatedText>
        </Decode>
      </CodeListItem>
      <CodeListItem CodedValue="K">
        <Decode>
          <TranslatedText xml:lang="en">POTASSIUM</TranslatedText>
        </Decode>
      </CodeListItem>
      <CodeListItem CodedValue="LYM">
        <Decode>
          <TranslatedText xml:lang="en">LYMPHOCYTES</TranslatedText>
        </Decode>
      </CodeListItem>
      <CodeListItem CodedValue="MONO">
        <Decode>
          <TranslatedText xml:lang="en">MONOCYTES</TranslatedText>
        </Decode>
      </CodeListItem>
      <CodeListItem CodedValue="NCYCLE">
        <Decode>
          <TranslatedText xml:lang="en">Number of Cycles Received</TranslatedText>
        </Decode>
      </CodeListItem>
      <CodeListItem CodedValue="NDELDOSE">
        <Decode>
          <TranslatedText xml:lang="en">Number of Dose Delays</TranslatedText>
        </Decode>
      </CodeListItem>
      <CodeListItem CodedValue="NEUT">
        <Decode>
          <TranslatedText xml:lang="en">NEUTROPHILS</TranslatedText>
        </Decode>
      </CodeListItem>
      <CodeListItem CodedValue="OBJRESP">
        <Decode>
          <TranslatedText xml:lang="en">Objective Response (confirmed CR/PR)</TranslatedText>
        </Decode>
      </CodeListItem>
      <CodeListItem CodedValue="OVRLRESP">
        <Decode>
          <TranslatedText xml:lang="en">Overall Response per RECIST v1.0</TranslatedText>
        </Decode>
      </CodeListItem>
      <CodeListItem CodedValue="PLAT">
        <Decode>
          <TranslatedText xml:lang="en">PLATELETS</TranslatedText>
        </Decode>
      </CodeListItem>
      <CodeListItem CodedValue="PLDOSE">
        <Decode>
          <TranslatedText xml:lang="en">Planned Dose (mg/m2)</TranslatedText>
        </Decode>
      </CodeListItem>
      <CodeListItem CodedValue="PSA">
        <Decode>
          <TranslatedText xml:lang="en">PROSTATE SPECIFIC ANTIGEN</TranslatedText>
        </Decode>
      </CodeListItem>
      <CodeListItem CodedValue="PSARESP">
        <Decode>
          <TranslatedText xml:lang="en">PSA Response (&gt;=50% decline)</TranslatedText>
        </Decode>
      </CodeListItem>
      <CodeListItem CodedValue="PSPROG">
        <Decode>
          <TranslatedText xml:lang="en">PSA Progression (PCWG3)</TranslatedText>
        </Decode>
      </CodeListItem>
      <CodeListItem CodedValue="BSGRESP">
        <Decode>
          <TranslatedText xml:lang="en">Bone Scan Progression (PCWG3)</TranslatedText>
        </Decode>
      </CodeListItem>
      <CodeListItem CodedValue="RBC">
        <Decode>
          <TranslatedText xml:lang="en">ERYTHROCYTES</TranslatedText>
        </Decode>
      </CodeListItem>
      <CodeListItem CodedValue="SODIUM">
        <Decode>
          <TranslatedText xml:lang="en">SODIUM</TranslatedText>
        </Decode>
      </CodeListItem>
      <CodeListItem CodedValue="TESTO">
        <Decode>
          <TranslatedText xml:lang="en">TESTOSTERONE</TranslatedText>
        </Decode>
      </CodeListItem>
      <CodeListItem CodedValue="TESTOFR">
        <Decode>
          <TranslatedText xml:lang="en">TESTOSTERONE, FREE</TranslatedText>
        </Decode>
      </CodeListItem>
      <CodeListItem CodedValue="UREA">
        <Decode>
          <TranslatedText xml:lang="en">UREA</TranslatedText>
        </Decode>
      </CodeListItem>
      <CodeListItem CodedValue="WBC">
        <Decode>
          <TranslatedText xml:lang="en">LEUKOCYTES</TranslatedText>
        </Decode>
      </CodeListItem>
</CodeList>
    <MethodDef OID="MT.TRTSDT" Name="Method for TRTSDT" Type="Computation">
      <Description>
        <TranslatedText xml:lang="en">Date of first exposure to treatment, derived as the minimum of EXSTDTC from the EX SDTM dataset.</TranslatedText>
      </Description>
    </MethodDef>
    <MethodDef OID="MT.TRTEDT" Name="Method for TRTEDT" Type="Computation">
      <Description>
        <TranslatedText xml:lang="en">Date of last exposure to treatment, derived as the maximum of EXENDTC from the EX SDTM dataset.</TranslatedText>
      </Description>
    </MethodDef>
    <MethodDef OID="MT.TRTDURD" Name="Method for TRTDURD" Type="Computation">
      <Description>
        <TranslatedText xml:lang="en">Treatment duration in days, calculated as: TRTEDT - TRTSDT + 1.</TranslatedText>
      </Description>
    </MethodDef>
    <MethodDef OID="MT.ITTFL" Name="Method for ITTFL" Type="Computation">
      <Description>
        <TranslatedText xml:lang="en">Intent-to-treat population flag, set to Y for all randomized subjects.</TranslatedText>
      </Description>
    </MethodDef>
    <MethodDef OID="MT.SAFFL" Name="Method for SAFFL" Type="Computation">
      <Description>
        <TranslatedText xml:lang="en">Safety population flag, set to Y for all subjects who received at least one dose of study treatment.</TranslatedText>
      </Description>
    </MethodDef>
    <MethodDef OID="MT.ECOGBL" Name="Method for ECOGBL" Type="Computation">
      <Description>
        <TranslatedText xml:lang="en">Baseline ECOG performance status, derived as the first non-missing value from VS where VSTESTCD = 'ECOG' and VSBLFL = 'Y'.</TranslatedText>
      </Description>
    </MethodDef>
    <MethodDef OID="MT.MEASDISF" Name="Method for MEASDISF" Type="Computation">
      <Description>
        <TranslatedText xml:lang="en">Baseline measurable disease flag, set to Y if target lesions are present at baseline in the LS SDTM dataset.</TranslatedText>
      </Description>
    </MethodDef>
    <MethodDef OID="MT.PAINBL" Name="Method for PAINBL" Type="Computation">
      <Description>
        <TranslatedText xml:lang="en">Baseline pain assessment flag, set to Y if baseline pain intensity is &gt;= 2 or baseline analgesic score is &gt;= 10.</TranslatedText>
      </Description>
    </MethodDef>
    <MethodDef OID="MT.RDI" Name="Method for RDI" Type="Computation">
      <Description>
        <TranslatedText xml:lang="en">Relative Dose Intensity, calculated as (Actual cumulative dose administered / Planned cumulative dose) * 100.</TranslatedText>
      </Description>
    </MethodDef>
    <MethodDef OID="MT.NCYCLE" Name="Method for NCYCLE" Type="Computation">
      <Description>
        <TranslatedText xml:lang="en">Number of treatment cycles received, derived as the max of visit number from EX.</TranslatedText>
      </Description>
    </MethodDef>
    <MethodDef OID="MT.ANCNADIR" Name="Method for ANCNADIR" Type="Computation">
      <Description>
        <TranslatedText xml:lang="en">Minimum absolute neutrophil count (ANC) value observed post-baseline during Cycle 1.</TranslatedText>
      </Description>
    </MethodDef>
    <MethodDef OID="MT.AVAL_TTE" Name="Method for AVAL_TTE" Type="Computation">
      <Description>
        <TranslatedText xml:lang="en">Time-to-event duration in days, calculated as: ADT - STARTDT + 1.</TranslatedText>
      </Description>
    </MethodDef>
    <MethodDef OID="MT.CNSR_TTE" Name="Method for CNSR_TTE" Type="Computation">
      <Description>
        <TranslatedText xml:lang="en">Censoring indicator, set to 0 if the event occurred, or 1 if censored.</TranslatedText>
      </Description>
    </MethodDef>
    <MethodDef OID="MT.DTHDT" Name="Method for DTHDT" Type="Computation"><Description><TranslatedText xml:lang="en">Death date derived from SDTM.DM.DTHDTC or disposition/death records.</TranslatedText></Description></MethodDef><MethodDef OID="MT.LSTALVDT" Name="Method for LSTALVDT" Type="Computation"><Description><TranslatedText xml:lang="en">Last known alive date derived as the maximum non-death contact or assessment date across source domains.</TranslatedText></Description></MethodDef><MethodDef OID="MT.ECOGBLIF" Name="Method for ECOGBLIF" Type="Computation"><Description><TranslatedText xml:lang="en">Baseline ECOG imputation flag derived from ECOGBL source availability and baseline window rules.</TranslatedText></Description></MethodDef><MethodDef OID="MT.PSABLIF" Name="Method for PSABLIF" Type="Computation"><Description><TranslatedText xml:lang="en">Baseline PSA imputation flag derived from PSABL source availability and baseline window rules.</TranslatedText></Description></MethodDef><MethodDef OID="MT.ALPBLIF" Name="Method for ALPBLIF" Type="Computation"><Description><TranslatedText xml:lang="en">Baseline alkaline phosphatase imputation flag derived from ALPBL source availability and baseline window rules.</TranslatedText></Description></MethodDef><MethodDef OID="MT.HGBBLIF" Name="Method for HGBBLIF" Type="Computation"><Description><TranslatedText xml:lang="en">Baseline hemoglobin imputation flag derived from HGBBL source availability and baseline window rules.</TranslatedText></Description></MethodDef><MethodDef OID="MT.ALBBLIF" Name="Method for ALBBLIF" Type="Computation"><Description><TranslatedText xml:lang="en">Baseline albumin imputation flag derived from ALBBL source availability and baseline window rules.</TranslatedText></Description></MethodDef><MethodDef OID="MT.LDHBLIF" Name="Method for LDHBLIF" Type="Computation"><Description><TranslatedText xml:lang="en">Baseline lactate dehydrogenase imputation flag derived from LDHBL source availability and baseline window rules.</TranslatedText></Description></MethodDef><MethodDef OID="MT.ADEX_AVAL" Name="Method for ADEX_AVAL" Type="Computation"><Description><TranslatedText xml:lang="en">Numeric exposure analysis value derived from SDTM.EX dose, duration, or cycle records according to ADEX.PARAMCD.</TranslatedText></Description></MethodDef><MethodDef OID="MT.ADEX_AVALC" Name="Method for ADEX_AVALC" Type="Computation"><Description><TranslatedText xml:lang="en">Character exposure analysis value derived from SDTM.EX dose, duration, or cycle records according to ADEX.PARAMCD.</TranslatedText></Description></MethodDef><MethodDef OID="MT.ADEX_PARAMN" Name="Method for ADEX_PARAMN" Type="Computation"><Description><TranslatedText xml:lang="en">Numeric ADEX parameter ordering derived from ADEX.PARAMCD.</TranslatedText></Description></MethodDef><MethodDef OID="MT.ADEX_AVISITN" Name="Method for ADEX_AVISITN" Type="Computation"><Description><TranslatedText xml:lang="en">Numeric ADEX analysis visit derived from ADEX.AVISIT and SDTM.EX date or sequence ordering.</TranslatedText></Description></MethodDef><MethodDef OID="MT.ADAE_ATOXGR" Name="Method for ADAE_ATOXGR" Type="Computation"><Description><TranslatedText xml:lang="en">Numeric adverse-event toxicity grade derived from SDTM.AE toxicity grade or severity source fields.</TranslatedText></Description></MethodDef><MethodDef OID="MT.ADLB_AVAL" Name="Method for ADLB_AVAL" Type="Computation"><Description><TranslatedText xml:lang="en">Numeric laboratory analysis value derived from SDTM.LB.LBSTRESN after parameter-specific unit standardization.</TranslatedText></Description></MethodDef><MethodDef OID="MT.ADLB_AVALC" Name="Method for ADLB_AVALC" Type="Computation"><Description><TranslatedText xml:lang="en">Character laboratory analysis value derived from SDTM.LB.LBSTRESC.</TranslatedText></Description></MethodDef><MethodDef OID="MT.ADLB_ATOXGR" Name="Method for ADLB_ATOXGR" Type="Computation"><Description><TranslatedText xml:lang="en">Analysis toxicity grade derived from laboratory result, normal range, and grading rules.</TranslatedText></Description></MethodDef><MethodDef OID="MT.ADLB_BASE" Name="Method for ADLB_BASE" Type="Computation"><Description><TranslatedText xml:lang="en">Baseline numeric value selected from the latest eligible pre-treatment ADLB.AVAL record.</TranslatedText></Description></MethodDef><MethodDef OID="MT.ADLB_BASEC" Name="Method for ADLB_BASEC" Type="Computation"><Description><TranslatedText xml:lang="en">Baseline character value selected from the latest eligible pre-treatment ADLB.AVALC record.</TranslatedText></Description></MethodDef><MethodDef OID="MT.ADLB_CHG" Name="Method for ADLB_CHG" Type="Computation"><Description><TranslatedText xml:lang="en">Change from baseline calculated as ADLB.AVAL minus ADLB.BASE.</TranslatedText></Description></MethodDef><MethodDef OID="MT.ADLB_PCHG" Name="Method for ADLB_PCHG" Type="Computation"><Description><TranslatedText xml:lang="en">Percent change from baseline calculated as 100 times ADLB.CHG divided by ADLB.BASE.</TranslatedText></Description></MethodDef><MethodDef OID="MT.ADLB_BASEFL" Name="Method for ADLB_BASEFL" Type="Computation"><Description><TranslatedText xml:lang="en">Baseline flag set on the selected eligible pre-treatment laboratory record.</TranslatedText></Description></MethodDef><MethodDef OID="MT.ADLB_ADT" Name="Method for ADLB_ADT" Type="Computation"><Description><TranslatedText xml:lang="en">Analysis date derived from SDTM.LB.LBDTC.</TranslatedText></Description></MethodDef><MethodDef OID="MT.ADRS_AVALC" Name="Method for ADRS_AVALC" Type="Computation"><Description><TranslatedText xml:lang="en">Character response result derived from response source assessments and response derivation rules.</TranslatedText></Description></MethodDef><MethodDef OID="MT.ADRS_AVAL" Name="Method for ADRS_AVAL" Type="Computation"><Description><TranslatedText xml:lang="en">Numeric response category derived from ADRS.AVALC response ordering.</TranslatedText></Description></MethodDef><MethodDef OID="MT.ADTTE_ITTFL" Name="Method for ADTTE_ITTFL" Type="Computation"><Description><TranslatedText xml:lang="en">Intent-to-treat flag inherited from ADSL.ITTFL.</TranslatedText></Description></MethodDef><MethodDef OID="MT.ADTTE_SAFFL" Name="Method for ADTTE_SAFFL" Type="Computation"><Description><TranslatedText xml:lang="en">Safety population flag inherited from ADSL.SAFFL.</TranslatedText></Description></MethodDef><MethodDef OID="MT.ADTTE_PARAMN" Name="Method for ADTTE_PARAMN" Type="Computation"><Description><TranslatedText xml:lang="en">Numeric ADTTE parameter ordering derived from ADTTE.PARAMCD.</TranslatedText></Description></MethodDef><MethodDef OID="MT.ADTTE_PARCAT1" Name="Method for ADTTE_PARCAT1" Type="Computation"><Description><TranslatedText xml:lang="en">Time-to-event parameter category derived from ADTTE.PARAMCD.</TranslatedText></Description></MethodDef><MethodDef OID="MT.ADTTE_AVALU" Name="Method for ADTTE_AVALU" Type="Computation"><Description><TranslatedText xml:lang="en">Time-to-event unit assigned by ADTTE parameter derivation.</TranslatedText></Description></MethodDef><MethodDef OID="MT.ADCM_ASTDT" Name="Method for ADCM_ASTDT" Type="Computation"><Description><TranslatedText xml:lang="en">Analysis medication start date derived from SDTM.CM.CMSTDTC.</TranslatedText></Description></MethodDef><MethodDef OID="MT.ADCM_AENDT" Name="Method for ADCM_AENDT" Type="Computation"><Description><TranslatedText xml:lang="en">Analysis medication end date derived from SDTM.CM.CMENDTC.</TranslatedText></Description></MethodDef><MethodDef OID="MT.ADCM_ASTDY" Name="Method for ADCM_ASTDY" Type="Computation"><Description><TranslatedText xml:lang="en">Analysis medication start relative day derived from ADCM.ASTDT and ADSL.TRTSDT.</TranslatedText></Description></MethodDef><def:CommentDef OID="COM.CIAESEQ">
      <Description>
        <TranslatedText xml:lang="en">Sequence index increments when chronological gap between myeloid AEs is &gt; 3 days, representing separate clinical episodes.</TranslatedText>
      </Description>
    </def:CommentDef>
    <def:CommentDef OID="COM.ANCNADIR">
      <Description>
        <TranslatedText xml:lang="en">Calculates minimum post-baseline ANC value per cycle for individual patients to model continuous dose-toxicity relationships.</TranslatedText>
      </Description>
    </def:CommentDef>
    <def:CommentDef OID="COM.NACTDT">
      <Description>
        <TranslatedText xml:lang="en">Identifies the start date of any post-baseline systemic anti-cancer therapy, acting as the primary censor-date boundary for PFS calculations.</TranslatedText>
      </Description>
    </def:CommentDef>
    <arm:AnalysisResultDisplays><arm:ResultDisplay OID="RD.EFFICACY.SURVIVAL" Name="Primary &amp; Secondary Survival Analyses"><Description><TranslatedText xml:lang="en">Stratified Cox proportional-hazards and log-rank analyses of OS and PFS (CbzP vs MP), stratified by ECOGBL and MEASDISF, per SAP v3.0 §4.3 (OS) and §5.1 (PFS).</TranslatedText></Description><arm:AnalysisResult OID="AR.OS.COX" ParameterOID="IT.ADTTE.PARAMCD" AnalysisReason="PRE-SPECIFIED IN SAP" AnalysisPurpose="PRIMARY OUTCOME MEASURE"><Description><TranslatedText xml:lang="en">Overall Survival — stratified Cox HR and stratified log-rank p-value, CbzP vs MP.</TranslatedText></Description><arm:AnalysisDatasets><arm:AnalysisDataset ItemGroupOID="IG.ADTTE"><def:WhereClauseRef WhereClauseOID="WC.ADTTE.PARAMCD.EQ.OS"/><arm:AnalysisVariable ItemOID="IT.ADTTE.AVAL"/><arm:AnalysisVariable ItemOID="IT.ADTTE.CNSR"/><arm:AnalysisVariable ItemOID="IT.ADTTE.TRT01P"/></arm:AnalysisDataset></arm:AnalysisDatasets><arm:ProgrammingCode Context="R 4.6.0 (survival::coxph / survdiff)"><arm:Code>coxph(Surv(AVAL, 1 - CNSR) ~ TRT01P + strata(ECOGBL, MEASDISF), data = adtte[PARAMCD=='OS'])</arm:Code></arm:ProgrammingCode></arm:AnalysisResult><arm:AnalysisResult OID="AR.PFS.COX" ParameterOID="IT.ADTTE.PARAMCD" AnalysisReason="PRE-SPECIFIED IN SAP" AnalysisPurpose="SECONDARY OUTCOME MEASURE"><Description><TranslatedText xml:lang="en">Progression-Free Survival — stratified Cox HR and stratified log-rank p-value, CbzP vs MP.</TranslatedText></Description><arm:AnalysisDatasets><arm:AnalysisDataset ItemGroupOID="IG.ADTTE"><def:WhereClauseRef WhereClauseOID="WC.ADTTE.PARAMCD.EQ.PFS"/><arm:AnalysisVariable ItemOID="IT.ADTTE.AVAL"/><arm:AnalysisVariable ItemOID="IT.ADTTE.CNSR"/><arm:AnalysisVariable ItemOID="IT.ADTTE.TRT01P"/></arm:AnalysisDataset></arm:AnalysisDatasets><arm:ProgrammingCode Context="R 4.6.0 (survival::coxph / survdiff)"><arm:Code>coxph(Surv(AVAL, 1 - CNSR) ~ TRT01P + strata(ECOGBL, MEASDISF), data = adtte[PARAMCD=='PFS'])</arm:Code></arm:ProgrammingCode></arm:AnalysisResult></arm:ResultDisplay><arm:ResultDisplay OID="RD.EFFICACY.SECONDARY" Name="Secondary Time-to-Event Analyses"><Description><TranslatedText xml:lang="en">Unstratified Cox proportional-hazards analyses of the secondary time-to-event endpoints (Time to PSA Progression; Time to Tumor Progression, measurable-disease subpopulation), CbzP vs MP, per SAP v3.0 §5.2.2 (TTPSA) and §5.3 (TTUMOR).</TranslatedText></Description><arm:AnalysisResult OID="AR.TTPSA.COX" ParameterOID="IT.ADTTE.PARAMCD" AnalysisReason="PRE-SPECIFIED IN SAP" AnalysisPurpose="SECONDARY OUTCOME MEASURE"><Description><TranslatedText xml:lang="en">Time to PSA Progression - Cox HR and log-rank p-value, CbzP vs MP.</TranslatedText></Description><arm:AnalysisDatasets><arm:AnalysisDataset ItemGroupOID="IG.ADTTE"><def:WhereClauseRef WhereClauseOID="WC.ADTTE.PARAMCD.EQ.TTPSA"/><arm:AnalysisVariable ItemOID="IT.ADTTE.AVAL"/><arm:AnalysisVariable ItemOID="IT.ADTTE.CNSR"/><arm:AnalysisVariable ItemOID="IT.ADTTE.TRT01P"/></arm:AnalysisDataset></arm:AnalysisDatasets><arm:ProgrammingCode Context="R 4.6.0 (survival::coxph / survdiff)"><arm:Code>coxph(Surv(AVAL, 1 - CNSR) ~ TRT01P, data = adtte[PARAMCD=='TTPSA'])</arm:Code></arm:ProgrammingCode></arm:AnalysisResult><arm:AnalysisResult OID="AR.TTUMOR.COX" ParameterOID="IT.ADTTE.PARAMCD" AnalysisReason="PRE-SPECIFIED IN SAP" AnalysisPurpose="SECONDARY OUTCOME MEASURE"><Description><TranslatedText xml:lang="en">Time to Tumor Progression (measurable-disease subpopulation) - Cox HR and log-rank p-value, CbzP vs MP.</TranslatedText></Description><arm:AnalysisDatasets><arm:AnalysisDataset ItemGroupOID="IG.ADTTE"><def:WhereClauseRef WhereClauseOID="WC.ADTTE.PARAMCD.EQ.TTUMOR"/><arm:AnalysisVariable ItemOID="IT.ADTTE.AVAL"/><arm:AnalysisVariable ItemOID="IT.ADTTE.CNSR"/><arm:AnalysisVariable ItemOID="IT.ADTTE.TRT01P"/></arm:AnalysisDataset></arm:AnalysisDatasets><arm:ProgrammingCode Context="R 4.6.0 (survival::coxph / survdiff)"><arm:Code>coxph(Surv(AVAL, 1 - CNSR) ~ TRT01P, data = adtte[PARAMCD=='TTUMOR'])</arm:Code></arm:ProgrammingCode></arm:AnalysisResult></arm:ResultDisplay><arm:ResultDisplay OID="RD.SAFETY.TEAE" Name="Treatment-Emergent Adverse Event Summary"><Description><TranslatedText xml:lang="en">Incidence of treatment-emergent adverse events (TRTEMFL='Y') by MedDRA preferred term and treatment, per SAP v3.0 §7.2 (table T-20).</TranslatedText></Description><arm:AnalysisResult OID="AR.TEAE.INCIDENCE" ParameterOID="IT.ADAE.AEDECOD" AnalysisReason="PRE-SPECIFIED IN SAP" AnalysisPurpose="SAFETY OUTCOME MEASURE"><Description><TranslatedText xml:lang="en">TEAE incidence (subjects with at least one event) by preferred term, CbzP vs MP.</TranslatedText></Description><arm:AnalysisDatasets><arm:AnalysisDataset ItemGroupOID="IG.ADAE"><def:WhereClauseRef WhereClauseOID="WC.ADAE.TRTEMFL.EQ.Y"/><arm:AnalysisVariable ItemOID="IT.ADAE.AEDECOD"/><arm:AnalysisVariable ItemOID="IT.ADAE.TRTA"/></arm:AnalysisDataset></arm:AnalysisDatasets><arm:ProgrammingCode Context="R 4.6.0 (dplyr)"><arm:Code>adae[TRTEMFL=='Y'] |&gt; distinct(USUBJID, TRTA, AEDECOD) |&gt; count(TRTA, AEDECOD)</arm:Code></arm:ProgrammingCode></arm:AnalysisResult></arm:ResultDisplay>
<arm:ResultDisplay OID="RD.EFFICACY.SUBGROUP" Name="Prognostic Subgroup Forest — Overall Survival (figure F-12-1)"><Description><TranslatedText xml:lang="en">Forest plot of Cox hazard ratios for Overall Survival (CbzP vs MP) within pre-specified prognostic subgroups (age group, baseline ECOG, measurable disease, visceral metastasis, baseline pain, prior docetaxel progression), per SAP v3.0 §8.2; rendered as figure F-12-1.</TranslatedText></Description><arm:AnalysisResult OID="AR.OS.SUBGROUP" ParameterOID="IT.ADTTE.PARAMCD" AnalysisReason="PRE-SPECIFIED IN SAP" AnalysisPurpose="EXPLORATORY OUTCOME MEASURE"><Description><TranslatedText xml:lang="en">Subgroup hazard ratios (95% CI) for OS by prognostic factor, CbzP vs MP — one Cox model per subgroup level.</TranslatedText></Description><arm:AnalysisDatasets><arm:AnalysisDataset ItemGroupOID="IG.ADTTE"><def:WhereClauseRef WhereClauseOID="WC.ADTTE.PARAMCD.EQ.OS"/><arm:AnalysisVariable ItemOID="IT.ADTTE.AVAL"/><arm:AnalysisVariable ItemOID="IT.ADTTE.CNSR"/><arm:AnalysisVariable ItemOID="IT.ADTTE.TRT01P"/></arm:AnalysisDataset><arm:AnalysisDataset ItemGroupOID="IG.ADSL"><arm:AnalysisVariable ItemOID="IT.ADSL.AGEGR1"/><arm:AnalysisVariable ItemOID="IT.ADSL.ECOGBL"/><arm:AnalysisVariable ItemOID="IT.ADSL.MEASDISF"/><arm:AnalysisVariable ItemOID="IT.ADSL.VISCFL"/><arm:AnalysisVariable ItemOID="IT.ADSL.PAINBL"/><arm:AnalysisVariable ItemOID="IT.ADSL.DOCPROG"/></arm:AnalysisDataset></arm:AnalysisDatasets><arm:ProgrammingCode Context="R 4.6.0 (survival::coxph)"><arm:Code>coxph(Surv(AVAL, 1 - CNSR) ~ (TRT01P == 'CbzP'), data = adtte[PARAMCD=='OS']) fit within each ADSL prognostic subgroup level</arm:Code></arm:ProgrammingCode></arm:AnalysisResult></arm:ResultDisplay>
<arm:ResultDisplay OID="RD.EFFICACY.PSA.RESPONSE" Name="PSA Best Percentage Change — Waterfall (figure F-13-1)"><Description><TranslatedText xml:lang="en">Per-subject best (minimum) percentage change in PSA from baseline, CbzP vs MP, against the 50% PSA-response threshold; rendered as figure F-13-1.</TranslatedText></Description><arm:AnalysisResult OID="AR.PSA.BESTPCHG" ParameterOID="IT.ADLB.PARAMCD" AnalysisReason="PRE-SPECIFIED IN SAP" AnalysisPurpose="SECONDARY OUTCOME MEASURE"><Description><TranslatedText xml:lang="en">Best percentage change from baseline in PSA per subject (minimum PCHG over post-baseline records), by treatment.</TranslatedText></Description><arm:AnalysisDatasets><arm:AnalysisDataset ItemGroupOID="IG.ADLB"><def:WhereClauseRef WhereClauseOID="WC.ADLB.PARAMCD.EQ.PSA"/><arm:AnalysisVariable ItemOID="IT.ADLB.PCHG"/><arm:AnalysisVariable ItemOID="IT.ADLB.TRT01P"/></arm:AnalysisDataset></arm:AnalysisDatasets><arm:ProgrammingCode Context="R 4.6.0 (dplyr)"><arm:Code>adlb[PARAMCD=='PSA'] grouped by USUBJID, best_pchg = min(PCHG); classified against 50% response threshold</arm:Code></arm:ProgrammingCode></arm:AnalysisResult></arm:ResultDisplay>
<arm:ResultDisplay OID="RD.SAFETY.EXPOSURE" Name="Treatment Exposure Duration — Swimmer (figure F-14-1)"><Description><TranslatedText xml:lang="en">Per-subject treatment exposure duration (months) with death events and cycles received, by arm; rendered as figure F-14-1.</TranslatedText></Description><arm:AnalysisResult OID="AR.TRTDUR.EXPOSURE" ParameterOID="IT.ADEX.PARAMCD" AnalysisReason="PRE-SPECIFIED IN SAP" AnalysisPurpose="SAFETY OUTCOME MEASURE"><Description><TranslatedText xml:lang="en">Treatment duration (ADSL.TRTDURD) and cycles received (ADEX NCYCLE) per subject, with death-event marker, by treatment.</TranslatedText></Description><arm:AnalysisDatasets><arm:AnalysisDataset ItemGroupOID="IG.ADSL"><arm:AnalysisVariable ItemOID="IT.ADSL.TRTDURD"/><arm:AnalysisVariable ItemOID="IT.ADSL.DTHFL"/><arm:AnalysisVariable ItemOID="IT.ADSL.TRT01P"/></arm:AnalysisDataset><arm:AnalysisDataset ItemGroupOID="IG.ADEX"><def:WhereClauseRef WhereClauseOID="WC.ADEX.PARAMCD.EQ.NCYCLE"/><arm:AnalysisVariable ItemOID="IT.ADEX.AVAL"/></arm:AnalysisDataset></arm:AnalysisDatasets><arm:ProgrammingCode Context="R 4.6.0 (ggplot2)"><arm:Code>duration_months = ADSL.TRTDURD / 30.4375; cycles from ADEX[PARAMCD=='NCYCLE']; death marker = (DTHFL == 'Y')</arm:Code></arm:ProgrammingCode></arm:AnalysisResult></arm:ResultDisplay>
<arm:ResultDisplay OID="RD.OPTIMUS.ER" Name="Project Optimus Exposure-Response Scatter (figure F-17-1)"><Description><TranslatedText xml:lang="en">Project Optimus exposure-response: Cycle-1 ANC nadir versus relative dose intensity (RDI) by arm, with LOWESS smoothing and the Grade-4 neutropenia threshold; rendered as figure F-17-1, per SAP v3.0 §10 (Project Optimus) and ADRG §3.</TranslatedText></Description><arm:AnalysisResult OID="AR.OPTIMUS.RDI.ANC" ParameterOID="IT.ADEX.PARAMCD" AnalysisReason="PRE-SPECIFIED IN SAP" AnalysisPurpose="EXPLORATORY OUTCOME MEASURE"><Description><TranslatedText xml:lang="en">ANC nadir (ADLB ANCNADIR, Cycle 1) modelled against relative dose intensity (ADEX RDI, all cycles) by treatment, LOWESS local regression.</TranslatedText></Description><arm:AnalysisDatasets><arm:AnalysisDataset ItemGroupOID="IG.ADEX"><def:WhereClauseRef WhereClauseOID="WC.ADEX.PARAMCD.EQ.RDI"/><arm:AnalysisVariable ItemOID="IT.ADEX.AVAL"/><arm:AnalysisVariable ItemOID="IT.ADEX.TRT01P"/></arm:AnalysisDataset><arm:AnalysisDataset ItemGroupOID="IG.ADLB"><def:WhereClauseRef WhereClauseOID="WC.ADLB.PARAMCD.EQ.ANCNADIR"/><arm:AnalysisVariable ItemOID="IT.ADLB.AVAL"/></arm:AnalysisDataset></arm:AnalysisDatasets><arm:ProgrammingCode Context="R 4.6.0 (ggplot2::geom_smooth loess)"><arm:Code>loess(ANC ~ RDI) by TRT01P; RDI = ADEX[PARAMCD=='RDI', AVISIT=='ALL CYCLES'].AVAL; ANC = ADLB[PARAMCD=='ANCNADIR', AVISIT=='CYCLE 1'].AVAL</arm:Code></arm:ProgrammingCode></arm:AnalysisResult></arm:ResultDisplay>
<arm:ResultDisplay OID="RD.SAFETY.LABSHIFT" Name="Laboratory Toxicity-Grade Shift — Baseline to Worst (table T-21-1)"><Description><TranslatedText xml:lang="en">Shift in CTCAE analysis toxicity grade (ATOXGR) from baseline to worst post-baseline analysis record, by laboratory parameter (ANC, PSA); rendered as table T-21-1, per SAP v3.0 §7.5.</TranslatedText></Description><arm:AnalysisResult OID="AR.LAB.SHIFT" ParameterOID="IT.ADLB.PARAMCD" AnalysisReason="PRE-SPECIFIED IN SAP" AnalysisPurpose="SAFETY OUTCOME MEASURE"><Description><TranslatedText xml:lang="en">Cross-tabulation of baseline (BASEFL='Y') versus worst post-baseline (BASEFL='N', ANL01FL='Y') ATOXGR per subject and parameter.</TranslatedText></Description><arm:AnalysisDatasets><arm:AnalysisDataset ItemGroupOID="IG.ADLB"><arm:AnalysisVariable ItemOID="IT.ADLB.PARAMCD"/><arm:AnalysisVariable ItemOID="IT.ADLB.ATOXGR"/><arm:AnalysisVariable ItemOID="IT.ADLB.BASEFL"/><arm:AnalysisVariable ItemOID="IT.ADLB.ANL01FL"/></arm:AnalysisDataset></arm:AnalysisDatasets><arm:ProgrammingCode Context="R 4.6.0 (dplyr)"><arm:Code>baseline ATOXGR (BASEFL=='Y') joined to worst post-baseline ATOXGR (BASEFL=='N', ANL01FL=='Y') per USUBJID and PARAMCD (NEUT, PSA)</arm:Code></arm:ProgrammingCode></arm:AnalysisResult></arm:ResultDisplay></arm:AnalysisResultDisplays></MetaDataVersion>
</Study>
  </ODM>